sys_time,e_fr,e_fl,e_rr,e_rl,rtc,mils,sync,ax,ay,az,gx,gy,gz
2022-07-06 17:29:51.775498,783,-1570,-1674,848,2022-07-06 10.59.49.000000 PM,1927251,1,0.0,0.0,0.0,0.0,0.0,0.0
2022-07-06 17:29:51.776510,783,-1570,-1674,848,2022-07-06 10.59.49.000000 PM,1927261,1,0.0,0.0,0.0,0.0,0.0,0.0
2022-07-06 17:29:51.777508,783,-1570,-1674,848,2022-07-06 10.59.49.000000 PM,1927271,1,0.0,0.0,0.0,0.0,0.0,0.0
2022-07-06 17:29:51.777508,783,-1570,-1674,848,2022-07-06 10.59.49.000000 PM,1927281,1,0.0,0.0,0.0,0.0,0.0,0.0
2022-07-06 17:29:51.778499,783,-1570,-1674,848,2022-07-06 10.59.49.000000 PM,1927291,1,0.0,0.0,0.0,0.0,0.0,0.0
2022-07-06 17:29:51.778499,783,-1570,-1674,848,2022-07-06 10.59.49.000000 PM,1927301,1,0.0,0.0,0.0,0.0,0.0,0.0
2022-07-06 17:29:51.779509,783,-1570,-1674,848,2022-07-06 10.59.50.000000 PM,1927311,1,0.0,0.0,0.0,0.0,0.0,0.0
2022-07-06 17:29:51.779509,783,-1570,-1674,848,2022-07-06 10.59.50.000000 PM,1927321,1,0.0,0.0,0.0,0.0,0.0,0.0
2022-07-06 17:29:51.780503,783,-1570,-1674,848,2022-07-06 10.59.50.000000 PM,1927331,1,0.0,0.0,0.0,0.0,0.0,0.0
2022-07-06 17:29:51.781500,783,-1570,-1674,848,2022-07-06 10.59.50.000000 PM,1927341,1,0.0,0.0,0.0,0.0,0.0,0.0
2022-07-06 17:29:51.781500,783,-1570,-1674,848,2022-07-06 10.59.50.000000 PM,1927351,1,0.0,0.0,0.0,0.0,0.0,0.0
2022-07-06 17:29:51.782500,783,-1570,-1674,848,2022-07-06 10.59.50.000000 PM,1927361,1,0.0,0.0,0.0,0.0,0.0,0.0
2022-07-06 17:29:51.782500,783,-1570,-1674,848,2022-07-06 10.59.50.000000 PM,1927371,1,0.0,0.0,0.0,0.0,0.0,0.0
2022-07-06 17:29:51.783503,783,-1570,-1674,848,2022-07-06 10.59.50.000000 PM,1927381,1,0.0,0.0,0.0,0.0,0.0,0.0
2022-07-06 17:29:51.783503,783,-1570,-1674,848,2022-07-06 10.59.50.000000 PM,1927391,1,0.0,0.0,0.0,0.0,0.0,0.0
2022-07-06 17:29:51.784500,783,-1570,-1674,848,2022-07-06 10.59.50.000000 PM,1927401,1,0.0,0.0,0.0,0.0,0.0,0.0
2022-07-06 17:29:51.784500,783,-1570,-1674,848,2022-07-06 10.59.50.000000 PM,1927411,1,0.0,0.0,0.0,0.0,0.0,0.0
2022-07-06 17:29:51.785499,783,-1570,-1674,848,2022-07-06 10.59.50.000000 PM,1927421,1,0.0,0.0,0.0,0.0,0.0,0.0
2022-07-06 17:29:51.785499,783,-1570,-1674,848,2022-07-06 10.59.50.000000 PM,1927431,1,0.0,0.0,0.0,0.0,0.0,0.0
2022-07-06 17:29:51.786501,783,-1570,-1674,848,2022-07-06 10.59.50.000000 PM,1927441,1,0.0,0.0,0.0,0.0,0.0,0.0
2022-07-06 17:29:51.802530,783,-1570,-1674,848,2022-07-06 10.59.50.000000 PM,1927451,1,0.0,0.0,0.0,0.0,0.0,0.0
2022-07-06 17:29:51.803500,783,-1570,-1674,848,2022-07-06 10.59.50.000000 PM,1927461,1,0.0,0.0,0.0,0.0,0.0,0.0
2022-07-06 17:29:51.804501,783,-1570,-1674,848,2022-07-06 10.59.50.000000 PM,1927471,1,0.0,0.0,0.0,0.0,0.0,0.0
2022-07-06 17:29:51.804501,783,-1570,-1674,848,2022-07-06 10.59.50.000000 PM,1927481,1,0.0,0.0,0.0,0.0,0.0,0.0
2022-07-06 17:29:51.828500,783,-1570,-1674,848,2022-07-06 10.59.50.000000 PM,1927491,1,0.0,0.0,0.0,0.0,0.0,0.0
2022-07-06 17:29:51.829504,783,-1570,-1674,848,2022-07-06 10.59.50.000000 PM,1927501,1,0.0,0.0,0.0,0.0,0.0,0.0
2022-07-06 17:29:51.830510,783,-1570,-1674,848,2022-07-06 10.59.50.000000 PM,1927511,1,0.0,0.0,0.0,0.0,0.0,0.0
2022-07-06 17:29:51.831500,783,-1570,-1674,848,2022-07-06 10.59.50.000000 PM,1927521,1,0.0,0.0,0.0,0.0,0.0,0.0
2022-07-06 17:29:51.864502,783,-1570,-1674,848,2022-07-06 10.59.50.000000 PM,1927531,1,0.0,0.0,0.0,0.0,0.0,0.0
2022-07-06 17:29:51.865502,783,-1570,-1674,848,2022-07-06 10.59.50.000000 PM,1927541,1,0.0,0.0,0.0,0.0,0.0,0.0
2022-07-06 17:29:51.866500,783,-1570,-1674,848,2022-07-06 10.59.50.000000 PM,1927551,1,0.0,0.0,0.0,0.0,0.0,0.0
2022-07-06 17:29:51.867501,783,-1570,-1674,848,2022-07-06 10.59.50.000000 PM,1927561,1,0.0,0.0,0.0,0.0,0.0,0.0
2022-07-06 17:29:51.900501,783,-1570,-1674,848,2022-07-06 10.59.50.000000 PM,1927571,1,0.0,0.0,0.0,0.0,0.0,0.0
2022-07-06 17:29:51.900501,784,-1570,-1674,848,2022-07-06 10.59.50.000000 PM,1927581,1,0.0,0.0,0.0,0.0,0.0,0.0
2022-07-06 17:29:51.901499,784,-1570,-1674,848,2022-07-06 10.59.50.000000 PM,1927591,1,0.0,0.0,0.0,0.0,0.0,0.0
2022-07-06 17:29:51.901499,784,-1570,-1674,849,2022-07-06 10.59.50.000000 PM,1927601,1,0.0,0.0,0.0,0.0,0.0,0.0
2022-07-06 17:29:51.924532,784,-1570,-1674,849,2022-07-06 10.59.50.000000 PM,1927611,1,0.0,0.0,0.0,0.0,0.0,0.0
2022-07-06 17:29:51.925499,784,-1570,-1674,849,2022-07-06 10.59.50.000000 PM,1927621,1,0.0,0.0,0.0,0.0,0.0,0.0
2022-07-06 17:29:51.925499,784,-1570,-1674,849,2022-07-06 10.59.50.000000 PM,1927631,1,0.0,0.0,0.0,0.0,0.0,0.0
2022-07-06 17:29:51.925499,784,-1570,-1674,849,2022-07-06 10.59.50.000000 PM,1927641,1,0.0,0.0,0.0,0.0,0.0,0.0
2022-07-06 17:29:51.932501,784,-1570,-1674,849,2022-07-06 10.59.50.000000 PM,1927651,1,0.0,0.0,0.0,0.0,0.0,0.0
2022-07-06 17:29:51.932501,784,-1570,-1674,849,2022-07-06 10.59.50.000000 PM,1927661,1,0.0,0.0,0.0,0.0,0.0,0.0
2022-07-06 17:29:51.932501,784,-1570,-1674,849,2022-07-06 10.59.50.000000 PM,1927671,1,0.0,0.0,0.0,0.0,0.0,0.0
2022-07-06 17:29:51.933500,784,-1570,-1674,849,2022-07-06 10.59.50.000000 PM,1927681,1,0.0,0.0,0.0,0.0,0.0,0.0
2022-07-06 17:29:51.960502,784,-1570,-1674,849,2022-07-06 10.59.50.000000 PM,1927691,1,0.0,0.0,0.0,0.0,0.0,0.0
2022-07-06 17:29:51.960502,784,-1570,-1674,849,2022-07-06 10.59.50.000000 PM,1927701,1,0.0,0.0,0.0,0.0,0.0,0.0
2022-07-06 17:29:51.961525,784,-1570,-1674,849,2022-07-06 10.59.50.000000 PM,1927711,1,0.0,0.0,0.0,0.0,0.0,0.0
2022-07-06 17:29:51.961525,784,-1570,-1674,849,2022-07-06 10.59.50.000000 PM,1927721,1,0.0,0.0,0.0,0.0,0.0,0.0
2022-07-06 17:29:51.995501,784,-1570,-1674,849,2022-07-06 10.59.50.000000 PM,1927731,1,0.0,0.0,0.0,0.0,0.0,0.0
2022-07-06 17:29:51.997503,784,-1570,-1674,849,2022-07-06 10.59.50.000000 PM,1927741,1,0.0,0.0,0.0,0.0,0.0,0.0
2022-07-06 17:29:51.998501,784,-1570,-1673,849,2022-07-06 10.59.50.000000 PM,1927751,1,0.0,0.0,0.0,0.0,0.0,0.0
2022-07-06 17:29:51.998501,784,-1570,-1673,849,2022-07-06 10.59.50.000000 PM,1927761,1,0.0,0.0,0.0,0.0,0.0,0.0
2022-07-06 17:29:52.027500,784,-1570,-1673,849,2022-07-06 10.59.50.000000 PM,1927771,1,0.0,0.0,0.0,0.0,0.0,0.0
2022-07-06 17:29:52.028501,784,-1570,-1673,849,2022-07-06 10.59.50.000000 PM,1927781,1,0.0,0.0,0.0,0.0,0.0,0.0
2022-07-06 17:29:52.028501,784,-1570,-1673,849,2022-07-06 10.59.50.000000 PM,1927791,1,0.0,0.0,0.0,0.0,0.0,0.0
2022-07-06 17:29:52.029500,784,-1570,-1673,849,2022-07-06 10.59.50.000000 PM,1927801,1,0.0,0.0,0.0,0.0,0.0,0.0
2022-07-06 17:29:52.029500,784,-1570,-1673,849,2022-07-06 10.59.50.000000 PM,1927811,1,0.0,0.0,0.0,0.0,0.0,0.0
2022-07-06 17:29:52.030504,784,-1570,-1673,849,2022-07-06 10.59.50.000000 PM,1927821,1,0.0,0.0,0.0,0.0,0.0,0.0
2022-07-06 17:29:52.031504,784,-1570,-1673,849,2022-07-06 10.59.50.000000 PM,1927832,1,0.0,0.0,0.0,0.0,0.0,0.0
2022-07-06 17:29:52.031504,784,-1570,-1673,849,2022-07-06 10.59.50.000000 PM,1927842,1,0.0,0.0,0.0,0.0,0.0,0.0
2022-07-06 17:29:52.061498,784,-1570,-1673,849,2022-07-06 10.59.50.000000 PM,1927852,1,0.0,0.0,0.0,0.0,0.0,0.0
2022-07-06 17:29:52.061498,784,-1570,-1673,849,2022-07-06 10.59.50.000000 PM,1927862,1,0.0,0.0,0.0,0.0,0.0,0.0
2022-07-06 17:29:52.062501,784,-1570,-1673,849,2022-07-06 10.59.50.000000 PM,1927872,1,0.0,0.0,0.0,0.0,0.0,0.0
2022-07-06 17:29:52.062501,784,-1570,-1673,849,2022-07-06 10.59.50.000000 PM,1927882,1,0.0,0.0,0.0,0.0,0.0,0.0
2022-07-06 17:29:52.088498,784,-1570,-1673,849,2022-07-06 10.59.50.000000 PM,1927892,1,0.0,0.0,0.0,0.0,0.0,0.0
2022-07-06 17:29:52.089498,784,-1570,-1673,849,2022-07-06 10.59.50.000000 PM,1927902,1,0.0,0.0,0.0,0.0,0.0,0.0
2022-07-06 17:29:52.089498,784,-1570,-1674,849,2022-07-06 10.59.50.000000 PM,1927912,1,0.0,0.0,0.0,0.0,0.0,0.0
2022-07-06 17:29:52.090499,784,-1570,-1674,849,2022-07-06 10.59.50.000000 PM,1927922,1,0.0,0.0,0.0,0.0,0.0,0.0
2022-07-06 17:29:52.121501,784,-1570,-1674,849,2022-07-06 10.59.50.000000 PM,1927932,1,0.0,0.0,0.0,0.0,0.0,0.0
2022-07-06 17:29:52.121501,784,-1570,-1674,849,2022-07-06 10.59.50.000000 PM,1927942,1,0.0,0.0,0.0,0.0,0.0,0.0
2022-07-06 17:29:52.122505,783,-1570,-1674,849,2022-07-06 10.59.50.000000 PM,1927952,1,0.0,0.0,0.0,0.0,0.0,0.0
2022-07-06 17:29:52.123502,783,-1570,-1674,849,2022-07-06 10.59.50.000000 PM,1927962,1,0.0,0.0,0.0,0.0,0.0,0.0
2022-07-06 17:29:52.157498,783,-1570,-1674,849,2022-07-06 10.59.50.000000 PM,1927972,1,0.0,0.0,0.0,0.0,0.0,0.0
2022-07-06 17:29:52.157498,783,-1570,-1674,849,2022-07-06 10.59.50.000000 PM,1927982,1,0.0,0.0,0.0,0.0,0.0,0.0
2022-07-06 17:29:52.158499,783,-1570,-1674,849,2022-07-06 10.59.50.000000 PM,1927992,1,0.0,0.0,0.0,0.0,0.0,0.0
2022-07-06 17:29:52.158499,783,-1570,-1674,849,2022-07-06 10.59.50.000000 PM,1928002,1,0.0,0.0,0.0,0.0,0.0,0.0
2022-07-06 17:29:52.162501,783,-1570,-1674,849,2022-07-06 10.59.50.000000 PM,1928012,1,0.0,0.0,0.0,0.0,0.0,0.0
2022-07-06 17:29:52.163500,783,-1570,-1674,849,2022-07-06 10.59.50.000000 PM,1928022,1,0.0,0.0,0.0,0.0,0.0,0.0
2022-07-06 17:29:52.163500,783,-1570,-1674,849,2022-07-06 10.59.50.000000 PM,1928032,1,0.0,0.0,0.0,0.0,0.0,0.0
2022-07-06 17:29:52.164516,783,-1570,-1674,849,2022-07-06 10.59.50.000000 PM,1928042,1,0.0,0.0,0.0,0.0,0.0,0.0
2022-07-06 17:29:52.196502,783,-1570,-1674,849,2022-07-06 10.59.50.000000 PM,1928052,1,0.0,0.0,0.0,0.0,0.0,0.0
2022-07-06 17:29:52.197503,783,-1570,-1674,849,2022-07-06 10.59.50.000000 PM,1928062,1,0.0,0.0,0.0,0.0,0.0,0.0
2022-07-06 17:29:52.197503,783,-1570,-1674,849,2022-07-06 10.59.50.000000 PM,1928072,1,0.0,0.0,0.0,0.0,0.0,0.0
2022-07-06 17:29:52.198502,783,-1570,-1674,849,2022-07-06 10.59.50.000000 PM,1928082,1,0.0,0.0,0.0,0.0,0.0,0.0
2022-07-06 17:29:52.225498,783,-1570,-1674,849,2022-07-06 10.59.50.000000 PM,1928092,1,0.0,0.0,0.0,0.0,0.0,0.0
2022-07-06 17:29:52.225498,783,-1570,-1674,849,2022-07-06 10.59.50.000000 PM,1928102,1,0.0,0.0,0.0,0.0,0.0,0.0
2022-07-06 17:29:52.225498,783,-1570,-1674,849,2022-07-06 10.59.50.000000 PM,1928112,1,0.0,0.0,0.0,0.0,0.0,0.0
2022-07-06 17:29:52.226499,783,-1570,-1674,849,2022-07-06 10.59.50.000000 PM,1928122,1,0.0,0.0,0.0,0.0,0.0,0.0
2022-07-06 17:29:52.231498,783,-1570,-1674,849,2022-07-06 10.59.50.000000 PM,1928132,1,0.0,0.0,0.0,0.0,0.0,0.0
2022-07-06 17:29:52.232501,783,-1570,-1674,849,2022-07-06 10.59.50.000000 PM,1928142,1,0.0,0.0,0.0,0.0,0.0,0.0
2022-07-06 17:29:52.232501,783,-1570,-1674,849,2022-07-06 10.59.50.000000 PM,1928152,1,0.0,0.0,0.0,0.0,0.0,0.0
2022-07-06 17:29:52.232501,783,-1570,-1674,849,2022-07-06 10.59.50.000000 PM,1928162,1,0.0,0.0,0.0,0.0,0.0,0.0
2022-07-06 17:29:52.256502,783,-1570,-1674,849,2022-07-06 10.59.50.000000 PM,1928172,1,0.0,0.0,0.0,0.0,0.0,0.0
2022-07-06 17:29:52.256502,783,-1570,-1674,849,2022-07-06 10.59.50.000000 PM,1928182,1,0.0,0.0,0.0,0.0,0.0,0.0
2022-07-06 17:29:52.257501,783,-1570,-1674,849,2022-07-06 10.59.50.000000 PM,1928192,1,0.0,0.0,0.0,0.0,0.0,0.0
2022-07-06 17:29:52.258501,783,-1570,-1674,849,2022-07-06 10.59.50.000000 PM,1928202,1,0.0,0.0,0.0,0.0,0.0,0.0
2022-07-06 17:29:52.286500,783,-1570,-1674,849,2022-07-06 10.59.50.000000 PM,1928212,1,0.0,0.0,0.0,0.0,0.0,0.0
2022-07-06 17:29:52.286500,783,-1570,-1674,849,2022-07-06 10.59.50.000000 PM,1928222,1,0.0,0.0,0.0,0.0,0.0,0.0
2022-07-06 17:29:52.287501,783,-1570,-1674,849,2022-07-06 10.59.50.000000 PM,1928232,1,0.0,0.0,0.0,0.0,0.0,0.0
2022-07-06 17:29:52.287501,783,-1570,-1674,849,2022-07-06 10.59.50.000000 PM,1928242,1,0.0,0.0,0.0,0.0,0.0,0.0
2022-07-06 17:29:52.329501,783,-1570,-1674,849,2022-07-06 10.59.50.000000 PM,1928252,1,0.0,0.0,0.0,0.0,0.0,0.0
2022-07-06 17:29:52.329501,783,-1570,-1674,849,2022-07-06 10.59.50.000000 PM,1928262,1,0.0,0.0,0.0,0.0,0.0,0.0
2022-07-06 17:29:52.330500,783,-1570,-1674,849,2022-07-06 10.59.50.000000 PM,1928272,1,0.0,0.0,0.0,0.0,0.0,0.0
2022-07-06 17:29:52.330500,783,-1570,-1674,849,2022-07-06 10.59.50.000000 PM,1928282,1,0.0,0.0,0.0,0.0,0.0,0.0
2022-07-06 17:29:52.331501,783,-1570,-1674,849,2022-07-06 10.59.50.000000 PM,1928292,1,0.0,0.0,0.0,0.0,0.0,0.0
2022-07-06 17:29:52.331501,783,-1570,-1674,849,2022-07-06 10.59.50.000000 PM,1928302,1,0.0,0.0,0.0,0.0,0.0,0.0
2022-07-06 17:29:52.332501,783,-1570,-1674,849,2022-07-06 10.59.51.000000 PM,1928312,1,0.0,0.0,0.0,0.0,0.0,0.0
2022-07-06 17:29:52.332501,783,-1570,-1674,849,2022-07-06 10.59.51.000000 PM,1928322,1,0.0,0.0,0.0,0.0,0.0,0.0
2022-07-06 17:29:52.332501,783,-1570,-1674,849,2022-07-06 10.59.51.000000 PM,1928332,1,0.0,0.0,0.0,0.0,0.0,0.0
2022-07-06 17:29:52.360501,783,-1570,-1674,849,2022-07-06 10.59.51.000000 PM,1928342,1,0.0,0.0,0.0,0.0,0.0,0.0
2022-07-06 17:29:52.360501,783,-1570,-1674,849,2022-07-06 10.59.51.000000 PM,1928352,1,0.0,0.0,0.0,0.0,0.0,0.0
2022-07-06 17:29:52.360501,783,-1570,-1674,849,2022-07-06 10.59.51.000000 PM,1928362,1,0.0,0.0,0.0,0.0,0.0,0.0
2022-07-06 17:29:52.361501,783,-1570,-1674,849,2022-07-06 10.59.51.000000 PM,1928372,1,0.0,0.0,0.0,0.0,0.0,0.0
2022-07-06 17:29:52.391500,783,-1570,-1674,849,2022-07-06 10.59.51.000000 PM,1928382,1,0.0,0.0,0.0,0.0,0.0,0.0
2022-07-06 17:29:52.391500,783,-1570,-1674,849,2022-07-06 10.59.51.000000 PM,1928392,1,0.0,0.0,0.0,0.0,0.0,0.0
2022-07-06 17:29:52.392501,783,-1570,-1674,849,2022-07-06 10.59.51.000000 PM,1928402,1,0.0,0.0,0.0,0.0,0.0,0.0
2022-07-06 17:29:52.392501,783,-1570,-1674,849,2022-07-06 10.59.51.000000 PM,1928412,1,0.0,0.0,0.0,0.0,0.0,0.0
2022-07-06 17:29:52.425534,783,-1570,-1674,849,2022-07-06 10.59.51.000000 PM,1928422,1,0.0,0.0,0.0,0.0,0.0,0.0
2022-07-06 17:29:52.425534,783,-1570,-1674,849,2022-07-06 10.59.51.000000 PM,1928432,1,0.0,0.0,0.0,0.0,0.0,0.0
2022-07-06 17:29:52.425534,783,-1570,-1674,849,2022-07-06 10.59.51.000000 PM,1928442,1,0.0,0.0,0.0,0.0,0.0,0.0
2022-07-06 17:29:52.426501,783,-1570,-1674,849,2022-07-06 10.59.51.000000 PM,1928452,1,0.0,0.0,0.0,0.0,0.0,0.0
2022-07-06 17:29:52.753531,786,-1568,-1671,851,2022-07-06 10.59.51.000000 PM,1928973,1,0.0,0.0,0.0,0.0,0.0,0.0
2022-07-06 17:29:52.772530,786,-1568,-1671,851,2022-07-06 10.59.51.000000 PM,1928983,1,0.0,0.0,0.0,0.0,0.0,0.0
2022-07-06 17:29:52.773499,786,-1568,-1671,851,2022-07-06 10.59.51.000000 PM,1928993,1,0.0,0.0,0.0,0.0,0.0,0.0
2022-07-06 17:29:52.773499,787,-1568,-1671,851,2022-07-06 10.59.51.000000 PM,1929003,1,0.0,0.0,0.0,0.0,0.0,0.0
2022-07-06 17:29:52.774511,787,-1568,-1671,851,2022-07-06 10.59.51.000000 PM,1929013,1,0.0,0.0,0.0,0.0,0.0,0.0
2022-07-06 17:29:52.792531,787,-1568,-1671,851,2022-07-06 10.59.51.000000 PM,1929023,1,0.0,0.0,0.0,0.0,0.0,0.0
2022-07-06 17:29:52.793515,787,-1568,-1671,851,2022-07-06 10.59.51.000000 PM,1929033,1,0.0,0.0,0.0,0.0,0.0,0.0
2022-07-06 17:29:52.793515,786,-1568,-1671,851,2022-07-06 10.59.51.000000 PM,1929043,1,0.0,0.0,0.0,0.0,0.0,0.0
2022-07-06 17:29:52.793515,786,-1568,-1671,851,2022-07-06 10.59.51.000000 PM,1929053,1,0.0,0.0,0.0,0.0,0.0,0.0
2022-07-06 17:29:52.818501,786,-1568,-1671,851,2022-07-06 10.59.51.000000 PM,1929063,1,0.0,0.0,0.0,0.0,0.0,0.0
2022-07-06 17:29:52.819541,786,-1568,-1672,851,2022-07-06 10.59.51.000000 PM,1929073,1,0.0,0.0,0.0,0.0,0.0,0.0
2022-07-06 17:29:52.819541,785,-1569,-1672,850,2022-07-06 10.59.51.000000 PM,1929083,1,0.0,0.0,0.0,0.0,0.0,0.0
2022-07-06 17:29:52.820501,785,-1569,-1672,850,2022-07-06 10.59.51.000000 PM,1929093,1,0.0,0.0,0.0,0.0,0.0,0.0
2022-07-06 17:29:52.852532,785,-1569,-1673,850,2022-07-06 10.59.51.000000 PM,1929103,1,0.0,0.0,0.0,0.0,0.0,0.0
2022-07-06 17:29:52.853503,784,-1570,-1673,849,2022-07-06 10.59.51.000000 PM,1929113,1,0.0,0.0,0.0,0.0,0.0,0.0
2022-07-06 17:29:52.853503,783,-1571,-1674,849,2022-07-06 10.59.51.000000 PM,1929123,1,0.0,0.0,0.0,0.0,0.0,0.0
2022-07-06 17:29:52.854501,783,-1571,-1675,848,2022-07-06 10.59.51.000000 PM,1929133,1,0.0,0.0,0.0,0.0,0.0,0.0
2022-07-06 17:29:52.877530,782,-1572,-1675,847,2022-07-06 10.59.51.000000 PM,1929143,1,0.0,0.0,0.0,0.0,0.0,0.0
2022-07-06 17:29:52.878504,781,-1573,-1676,847,2022-07-06 10.59.51.000000 PM,1929153,1,0.0,0.0,0.0,0.0,0.0,0.0
2022-07-06 17:29:52.878504,781,-1573,-1677,846,2022-07-06 10.59.51.000000 PM,1929163,1,0.0,0.0,0.0,0.0,0.0,0.0
2022-07-06 17:29:52.879507,780,-1574,-1677,846,2022-07-06 10.59.51.000000 PM,1929173,1,0.0,0.0,0.0,0.0,0.0,0.0
2022-07-06 17:29:52.885500,780,-1575,-1678,845,2022-07-06 10.59.51.000000 PM,1929183,1,0.0,0.0,0.0,0.0,0.0,0.0
2022-07-06 17:29:52.885500,779,-1575,-1678,845,2022-07-06 10.59.51.000000 PM,1929193,1,0.0,0.0,0.0,0.0,0.0,0.0
2022-07-06 17:29:52.886501,779,-1576,-1679,844,2022-07-06 10.59.51.000000 PM,1929203,1,0.0,0.0,0.0,0.0,0.0,0.0
2022-07-06 17:29:52.887505,778,-1576,-1679,844,2022-07-06 10.59.51.000000 PM,1929213,1,0.0,0.0,0.0,0.0,0.0,0.0
2022-07-06 17:29:52.923499,778,-1577,-1680,844,2022-07-06 10.59.51.000000 PM,1929223,1,0.0,0.0,0.0,0.0,0.0,0.0
2022-07-06 17:29:52.924499,778,-1577,-1680,843,2022-07-06 10.59.51.000000 PM,1929233,1,0.0,0.0,0.0,0.0,0.0,0.0
2022-07-06 17:29:52.925500,778,-1577,-1680,843,2022-07-06 10.59.51.000000 PM,1929243,1,0.0,0.0,0.0,0.0,0.0,0.0
2022-07-06 17:29:52.925500,778,-1577,-1680,843,2022-07-06 10.59.51.000000 PM,1929253,1,0.0,0.0,0.0,0.0,0.0,0.0
2022-07-06 17:29:52.957530,778,-1577,-1680,843,2022-07-06 10.59.51.000000 PM,1929263,1,0.0,0.0,0.0,0.0,0.0,0.0
2022-07-06 17:29:52.958499,778,-1577,-1680,843,2022-07-06 10.59.51.000000 PM,1929273,1,0.0,0.0,0.0,0.0,0.0,0.0
2022-07-06 17:29:52.958499,778,-1577,-1680,843,2022-07-06 10.59.51.000000 PM,1929283,1,0.0,0.0,0.0,0.0,0.0,0.0
2022-07-06 17:29:52.958499,778,-1577,-1680,844,2022-07-06 10.59.51.000000 PM,1929293,1,0.0,0.0,0.0,0.0,0.0,0.0
2022-07-06 17:29:52.959503,778,-1577,-1680,844,2022-07-06 10.59.51.000000 PM,1929303,1,0.0,0.0,0.0,0.0,0.0,0.0
2022-07-06 17:29:52.960501,779,-1577,-1679,844,2022-07-06 10.59.52.000000 PM,1929313,1,0.0,0.0,0.0,0.0,0.0,0.0
2022-07-06 17:29:52.960501,779,-1577,-1679,844,2022-07-06 10.59.52.000000 PM,1929323,1,0.0,0.0,0.0,0.0,0.0,0.0
2022-07-06 17:29:52.961499,779,-1576,-1679,845,2022-07-06 10.59.52.000000 PM,1929333,1,0.0,0.0,0.0,0.0,0.0,0.0
2022-07-06 17:29:52.992530,780,-1576,-1679,845,2022-07-06 10.59.52.000000 PM,1929343,1,0.0,0.0,0.0,0.0,0.0,0.0
2022-07-06 17:29:52.993503,780,-1576,-1678,846,2022-07-06 10.59.52.000000 PM,1929353,1,0.0,0.0,0.0,0.0,0.0,0.0
2022-07-06 17:29:52.993503,781,-1575,-1678,847,2022-07-06 10.59.52.000000 PM,1929363,1,0.0,0.0,0.0,0.0,0.0,0.0
2022-07-06 17:29:52.994503,781,-1574,-1677,847,2022-07-06 10.59.52.000000 PM,1929373,1,0.0,0.0,0.0,0.0,0.0,0.0
2022-07-06 17:29:53.021500,782,-1573,-1676,848,2022-07-06 10.59.52.000000 PM,1929383,1,0.0,0.0,0.0,0.0,0.0,0.0
2022-07-06 17:29:53.021500,783,-1573,-1676,848,2022-07-06 10.59.52.000000 PM,1929393,1,0.0,0.0,0.0,0.0,0.0,0.0
2022-07-06 17:29:53.022503,783,-1573,-1675,848,2022-07-06 10.59.52.000000 PM,1929403,1,0.0,0.0,0.0,0.0,0.0,0.0
2022-07-06 17:29:53.022503,784,-1572,-1675,849,2022-07-06 10.59.52.000000 PM,1929413,1,0.0,0.0,0.0,0.0,0.0,0.0
2022-07-06 17:29:53.062502,784,-1572,-1675,849,2022-07-06 10.59.52.000000 PM,1929423,1,0.0,0.0,0.0,0.0,0.0,0.0
2022-07-06 17:29:53.063499,784,-1572,-1675,849,2022-07-06 10.59.52.000000 PM,1929433,1,0.0,0.0,0.0,0.0,0.0,0.0
2022-07-06 17:29:53.064501,784,-1572,-1675,849,2022-07-06 10.59.52.000000 PM,1929443,1,0.0,0.0,0.0,0.0,0.0,0.0
2022-07-06 17:29:53.064501,784,-1572,-1675,849,2022-07-06 10.59.52.000000 PM,1929453,1,0.0,0.0,0.0,0.0,0.0,0.0
2022-07-06 17:29:53.065499,783,-1572,-1675,849,2022-07-06 10.59.52.000000 PM,1929463,1,0.0,0.0,0.0,0.0,0.0,0.0
2022-07-06 17:29:53.070529,783,-1573,-1676,848,2022-07-06 10.59.52.000000 PM,1929473,1,0.0,0.0,0.0,0.0,0.0,0.0
2022-07-06 17:29:53.070529,782,-1573,-1676,847,2022-07-06 10.59.52.000000 PM,1929483,1,0.0,0.0,0.0,0.0,0.0,0.0
2022-07-06 17:29:53.070529,781,-1574,-1677,847,2022-07-06 10.59.52.000000 PM,1929494,1,0.0,0.0,0.0,0.0,0.0,0.0
2022-07-06 17:29:53.071501,780,-1575,-1678,846,2022-07-06 10.59.52.000000 PM,1929504,1,0.0,0.0,0.0,0.0,0.0,0.0
2022-07-06 17:29:53.107529,779,-1576,-1679,845,2022-07-06 10.59.52.000000 PM,1929514,1,0.0,0.0,0.0,0.0,0.0,0.0
2022-07-06 17:29:53.108500,778,-1577,-1680,844,2022-07-06 10.59.52.000000 PM,1929524,1,0.0,0.0,0.0,0.0,0.0,0.0
2022-07-06 17:29:53.108500,778,-1578,-1681,844,2022-07-06 10.59.52.000000 PM,1929534,1,0.0,0.0,0.0,0.0,0.0,0.0
2022-07-06 17:29:53.109502,777,-1578,-1681,843,2022-07-06 10.59.52.000000 PM,1929544,1,0.0,0.0,0.0,0.0,0.0,0.0
2022-07-06 17:29:53.109502,777,-1579,-1682,843,2022-07-06 10.59.52.000000 PM,1929554,1,0.0,0.0,0.0,0.0,0.0,0.0
2022-07-06 17:29:53.110522,777,-1579,-1682,843,2022-07-06 10.59.52.000000 PM,1929564,1,0.0,0.0,0.0,0.0,0.0,0.0
2022-07-06 17:29:53.110522,776,-1579,-1682,843,2022-07-06 10.59.52.000000 PM,1929574,1,0.0,0.0,0.0,0.0,0.0,0.0
2022-07-06 17:29:53.111500,776,-1579,-1682,843,2022-07-06 10.59.52.000000 PM,1929584,1,0.0,0.0,0.0,0.0,0.0,0.0
2022-07-06 17:29:53.140529,777,-1579,-1682,843,2022-07-06 10.59.52.000000 PM,1929594,1,0.0,0.0,0.0,0.0,0.0,0.0
2022-07-06 17:29:53.140529,777,-1579,-1682,843,2022-07-06 10.59.52.000000 PM,1929604,1,0.0,0.0,0.0,0.0,0.0,0.0
2022-07-06 17:29:53.141502,777,-1579,-1682,843,2022-07-06 10.59.52.000000 PM,1929614,1,0.0,0.0,0.0,0.0,0.0,0.0
2022-07-06 17:29:53.141502,777,-1579,-1682,843,2022-07-06 10.59.52.000000 PM,1929624,1,0.0,0.0,0.0,0.0,0.0,0.0
2022-07-06 17:29:53.170501,778,-1579,-1681,844,2022-07-06 10.59.52.000000 PM,1929634,1,0.0,0.0,0.0,0.0,0.0,0.0
2022-07-06 17:29:53.170501,778,-1578,-1681,844,2022-07-06 10.59.52.000000 PM,1929644,1,0.0,0.0,0.0,0.0,0.0,0.0
2022-07-06 17:29:53.171501,779,-1578,-1680,845,2022-07-06 10.59.52.000000 PM,1929654,1,0.0,0.0,0.0,0.0,0.0,0.0
2022-07-06 17:29:53.171501,779,-1577,-1680,845,2022-07-06 10.59.52.000000 PM,1929664,1,0.0,0.0,0.0,0.0,0.0,0.0
2022-07-06 17:29:53.197502,780,-1577,-1680,846,2022-07-06 10.59.52.000000 PM,1929674,1,0.0,0.0,0.0,0.0,0.0,0.0
2022-07-06 17:29:53.198504,780,-1576,-1679,846,2022-07-06 10.59.52.000000 PM,1929684,1,0.0,0.0,0.0,0.0,0.0,0.0
2022-07-06 17:29:53.199500,781,-1576,-1679,847,2022-07-06 10.59.52.000000 PM,1929694,1,0.0,0.0,0.0,0.0,0.0,0.0
2022-07-06 17:29:53.199500,781,-1576,-1678,847,2022-07-06 10.59.52.000000 PM,1929704,1,0.0,0.0,0.0,0.0,0.0,0.0
2022-07-06 17:29:53.243533,781,-1575,-1678,847,2022-07-06 10.59.52.000000 PM,1929714,1,0.0,0.0,0.0,0.0,0.0,0.0
2022-07-06 17:29:53.244501,781,-1575,-1678,847,2022-07-06 10.59.52.000000 PM,1929724,1,0.0,0.0,0.0,0.0,0.0,0.0
2022-07-06 17:29:53.244501,782,-1575,-1678,847,2022-07-06 10.59.52.000000 PM,1929734,1,0.0,0.0,0.0,0.0,0.0,0.0
2022-07-06 17:29:53.245499,782,-1575,-1678,847,2022-07-06 10.59.52.000000 PM,1929744,1,0.0,0.0,0.0,0.0,0.0,0.0
2022-07-06 17:29:53.246500,782,-1575,-1678,847,2022-07-06 10.59.52.000000 PM,1929754,1,0.0,0.0,0.0,0.0,0.0,0.0
2022-07-06 17:29:53.247501,782,-1575,-1678,847,2022-07-06 10.59.52.000000 PM,1929764,1,0.0,0.0,0.0,0.0,0.0,0.0
2022-07-06 17:29:53.248499,781,-1575,-1678,847,2022-07-06 10.59.52.000000 PM,1929774,1,0.0,0.0,0.0,0.0,0.0,0.0
2022-07-06 17:29:53.248499,781,-1575,-1678,847,2022-07-06 10.59.52.000000 PM,1929784,1,0.0,0.0,0.0,0.0,0.0,0.0
2022-07-06 17:29:53.302531,781,-1575,-1678,847,2022-07-06 10.59.52.000000 PM,1929794,1,0.0,0.0,0.0,0.0,0.0,0.0
2022-07-06 17:29:53.303499,781,-1575,-1678,847,2022-07-06 10.59.52.000000 PM,1929804,1,0.0,0.0,0.0,0.0,0.0,0.0
2022-07-06 17:29:53.303499,781,-1575,-1678,847,2022-07-06 10.59.52.000000 PM,1929814,1,0.0,0.0,0.0,0.0,0.0,0.0
2022-07-06 17:29:53.303499,781,-1575,-1678,847,2022-07-06 10.59.52.000000 PM,1929824,1,0.0,0.0,0.0,0.0,0.0,0.0
2022-07-06 17:29:53.321500,781,-1575,-1678,847,2022-07-06 10.59.52.000000 PM,1929834,1,0.0,0.0,0.0,0.0,0.0,0.0
2022-07-06 17:29:53.321500,781,-1575,-1678,847,2022-07-06 10.59.52.000000 PM,1929844,1,0.0,0.0,0.0,0.0,0.0,0.0
2022-07-06 17:29:53.322500,781,-1575,-1678,847,2022-07-06 10.59.52.000000 PM,1929854,1,0.0,0.0,0.0,0.0,0.0,0.0
2022-07-06 17:29:53.322500,781,-1575,-1678,847,2022-07-06 10.59.52.000000 PM,1929864,1,0.0,0.0,0.0,0.0,0.0,0.0
2022-07-06 17:29:53.373534,781,-1575,-1678,847,2022-07-06 10.59.52.000000 PM,1929874,1,0.0,0.0,0.0,0.0,0.0,0.0
2022-07-06 17:29:53.374501,781,-1575,-1678,847,2022-07-06 10.59.52.000000 PM,1929884,1,0.0,0.0,0.0,0.0,0.0,0.0
2022-07-06 17:29:53.374501,781,-1575,-1678,847,2022-07-06 10.59.52.000000 PM,1929894,1,0.0,0.0,0.0,0.0,0.0,0.0
2022-07-06 17:29:53.375500,781,-1575,-1678,847,2022-07-06 10.59.52.000000 PM,1929904,1,0.0,0.0,0.0,0.0,0.0,0.0
2022-07-06 17:29:53.430499,781,-1575,-1678,847,2022-07-06 10.59.52.000000 PM,1929914,1,0.0,0.0,0.0,0.0,0.0,0.0
2022-07-06 17:29:53.430499,781,-1575,-1678,847,2022-07-06 10.59.52.000000 PM,1929924,1,0.0,0.0,0.0,0.0,0.0,0.0
2022-07-06 17:29:53.430499,781,-1575,-1678,847,2022-07-06 10.59.52.000000 PM,1929934,1,0.0,0.0,0.0,0.0,0.0,0.0
2022-07-06 17:29:53.431503,781,-1575,-1678,847,2022-07-06 10.59.52.000000 PM,1929944,1,0.0,0.0,0.0,0.0,0.0,0.0
2022-07-06 17:29:53.433531,781,-1575,-1678,847,2022-07-06 10.59.52.000000 PM,1929954,1,0.0,0.0,0.0,0.0,0.0,0.0
2022-07-06 17:29:53.434503,782,-1575,-1678,848,2022-07-06 10.59.52.000000 PM,1929964,1,0.0,0.0,0.0,0.0,0.0,0.0
2022-07-06 17:29:53.434503,782,-1575,-1678,848,2022-07-06 10.59.52.000000 PM,1929974,1,0.0,0.0,0.0,0.0,0.0,0.0
2022-07-06 17:29:53.435501,782,-1575,-1678,848,2022-07-06 10.59.52.000000 PM,1929984,1,0.0,0.0,0.0,0.0,0.0,0.0
2022-07-06 17:29:53.482531,782,-1575,-1678,848,2022-07-06 10.59.52.000000 PM,1929994,1,0.0,0.0,0.0,0.0,0.0,0.0
2022-07-06 17:29:53.483500,782,-1575,-1678,848,2022-07-06 10.59.52.000000 PM,1930004,1,0.0,0.0,0.0,0.0,0.0,0.0
2022-07-06 17:29:53.483500,782,-1575,-1678,848,2022-07-06 10.59.52.000000 PM,1930014,1,0.0,0.0,0.0,0.0,0.0,0.0
2022-07-06 17:29:53.484502,782,-1575,-1678,848,2022-07-06 10.59.52.000000 PM,1930024,1,0.0,0.0,0.0,0.0,0.0,0.0
2022-07-06 17:29:53.530500,782,-1575,-1678,848,2022-07-06 10.59.52.000000 PM,1930034,1,0.0,0.0,0.0,0.0,0.0,0.0
2022-07-06 17:29:53.530500,782,-1575,-1678,848,2022-07-06 10.59.52.000000 PM,1930044,1,0.0,0.0,0.0,0.0,0.0,0.0
2022-07-06 17:29:53.531500,782,-1575,-1678,848,2022-07-06 10.59.52.000000 PM,1930054,1,0.0,0.0,0.0,0.0,0.0,0.0
2022-07-06 17:29:53.531500,782,-1575,-1678,848,2022-07-06 10.59.52.000000 PM,1930064,1,0.0,0.0,0.0,0.0,0.0,0.0
2022-07-06 17:29:53.576500,782,-1575,-1678,848,2022-07-06 10.59.52.000000 PM,1930074,1,0.0,0.0,0.0,0.0,0.0,0.0
2022-07-06 17:29:53.576500,782,-1575,-1678,848,2022-07-06 10.59.52.000000 PM,1930084,1,0.0,0.0,0.0,0.0,0.0,0.0
2022-07-06 17:29:53.577501,782,-1575,-1678,848,2022-07-06 10.59.52.000000 PM,1930094,1,0.0,0.0,0.0,0.0,0.0,0.0
2022-07-06 17:29:53.577501,782,-1575,-1678,848,2022-07-06 10.59.52.000000 PM,1930104,1,0.0,0.0,0.0,0.0,0.0,0.0
2022-07-06 17:29:53.606501,782,-1575,-1678,848,2022-07-06 10.59.52.000000 PM,1930114,1,0.0,0.0,0.0,0.0,0.0,0.0
2022-07-06 17:29:53.606501,782,-1575,-1678,848,2022-07-06 10.59.52.000000 PM,1930124,1,0.0,0.0,0.0,0.0,0.0,0.0
2022-07-06 17:29:53.607502,782,-1575,-1678,848,2022-07-06 10.59.52.000000 PM,1930134,1,0.0,0.0,0.0,0.0,0.0,0.0
2022-07-06 17:29:53.607502,782,-1575,-1678,848,2022-07-06 10.59.52.000000 PM,1930144,1,0.0,0.0,0.0,0.0,0.0,0.0
2022-07-06 17:29:53.665499,782,-1575,-1678,848,2022-07-06 10.59.52.000000 PM,1930154,1,0.0,0.0,0.0,0.0,0.0,0.0
2022-07-06 17:29:53.665499,782,-1575,-1678,848,2022-07-06 10.59.52.000000 PM,1930164,1,0.0,0.0,0.0,0.0,0.0,0.0
2022-07-06 17:29:53.666501,782,-1575,-1678,848,2022-07-06 10.59.52.000000 PM,1930174,1,0.0,0.0,0.0,0.0,0.0,0.0
2022-07-06 17:29:53.666501,782,-1575,-1678,848,2022-07-06 10.59.52.000000 PM,1930184,1,0.0,0.0,0.0,0.0,0.0,0.0
2022-07-06 17:29:53.695500,782,-1575,-1678,848,2022-07-06 10.59.52.000000 PM,1930194,1,0.0,0.0,0.0,0.0,0.0,0.0
2022-07-06 17:29:53.696501,782,-1575,-1678,848,2022-07-06 10.59.52.000000 PM,1930204,1,0.0,0.0,0.0,0.0,0.0,0.0
2022-07-06 17:29:53.696501,782,-1575,-1678,848,2022-07-06 10.59.52.000000 PM,1930214,1,0.0,0.0,0.0,0.0,0.0,0.0
2022-07-06 17:29:53.697505,782,-1574,-1678,848,2022-07-06 10.59.52.000000 PM,1930224,1,0.0,0.0,0.0,0.0,0.0,0.0
2022-07-06 17:29:53.726499,783,-1574,-1678,849,2022-07-06 10.59.52.000000 PM,1930234,1,0.0,0.0,0.0,0.0,0.0,0.0
2022-07-06 17:29:53.726499,783,-1574,-1678,849,2022-07-06 10.59.52.000000 PM,1930244,1,0.0,0.0,0.0,0.0,0.0,0.0
2022-07-06 17:29:53.727505,783,-1574,-1677,849,2022-07-06 10.59.52.000000 PM,1930254,1,0.0,0.0,0.0,0.0,0.0,0.0
2022-07-06 17:29:53.727505,783,-1574,-1677,849,2022-07-06 10.59.52.000000 PM,1930264,1,0.0,0.0,0.0,0.0,0.0,0.0
2022-07-06 17:29:53.798499,783,-1574,-1677,849,2022-07-06 10.59.52.000000 PM,1930274,1,0.0,0.0,0.0,0.0,0.0,0.0
2022-07-06 17:29:53.799505,784,-1573,-1677,850,2022-07-06 10.59.52.000000 PM,1930284,1,0.0,0.0,0.0,0.0,0.0,0.0
2022-07-06 17:29:53.799505,784,-1573,-1676,850,2022-07-06 10.59.52.000000 PM,1930294,1,0.0,0.0,0.0,0.0,0.0,0.0
2022-07-06 17:29:53.800526,784,-1573,-1676,850,2022-07-06 10.59.52.000000 PM,1930304,1,0.0,0.0,0.0,0.0,0.0,0.0
2022-07-06 17:29:53.801504,784,-1573,-1676,850,2022-07-06 10.59.53.000000 PM,1930314,1,0.0,0.0,0.0,0.0,0.0,0.0
2022-07-06 17:29:53.801504,784,-1573,-1676,850,2022-07-06 10.59.53.000000 PM,1930324,1,0.0,0.0,0.0,0.0,0.0,0.0
2022-07-06 17:29:53.802527,784,-1573,-1676,850,2022-07-06 10.59.53.000000 PM,1930335,1,0.0,0.0,0.0,0.0,0.0,0.0
2022-07-06 17:29:53.802527,784,-1573,-1676,850,2022-07-06 10.59.53.000000 PM,1930345,1,0.0,0.0,0.0,0.0,0.0,0.0
2022-07-06 17:29:53.846525,784,-1573,-1676,850,2022-07-06 10.59.53.000000 PM,1930355,1,0.0,0.0,0.0,0.0,0.0,0.0
2022-07-06 17:29:53.847503,784,-1573,-1676,850,2022-07-06 10.59.53.000000 PM,1930365,1,0.0,0.0,0.0,0.0,0.0,0.0
2022-07-06 17:29:53.847503,784,-1573,-1676,850,2022-07-06 10.59.53.000000 PM,1930375,1,0.0,0.0,0.0,0.0,0.0,0.0
2022-07-06 17:29:53.847503,784,-1573,-1676,850,2022-07-06 10.59.53.000000 PM,1930385,1,0.0,0.0,0.0,0.0,0.0,0.0
2022-07-06 17:29:53.906501,784,-1573,-1676,850,2022-07-06 10.59.53.000000 PM,1930395,1,0.0,0.0,0.0,0.0,0.0,0.0
2022-07-06 17:29:53.906501,784,-1573,-1676,850,2022-07-06 10.59.53.000000 PM,1930405,1,0.0,0.0,0.0,0.0,0.0,0.0
2022-07-06 17:29:53.907500,784,-1573,-1676,850,2022-07-06 10.59.53.000000 PM,1930415,1,0.0,0.0,0.0,0.0,0.0,0.0
2022-07-06 17:29:53.907500,784,-1573,-1676,850,2022-07-06 10.59.53.000000 PM,1930425,1,0.0,0.0,0.0,0.0,0.0,0.0
2022-07-06 17:29:53.940500,784,-1573,-1676,850,2022-07-06 10.59.53.000000 PM,1930435,1,0.0,0.0,0.0,0.0,0.0,0.0
2022-07-06 17:29:53.940500,784,-1573,-1676,850,2022-07-06 10.59.53.000000 PM,1930445,1,0.0,0.0,0.0,0.0,0.0,0.0
2022-07-06 17:29:53.940500,784,-1573,-1676,850,2022-07-06 10.59.53.000000 PM,1930455,1,0.0,0.0,0.0,0.0,0.0,0.0
2022-07-06 17:29:53.941500,784,-1573,-1676,850,2022-07-06 10.59.53.000000 PM,1930465,1,0.0,0.0,0.0,0.0,0.0,0.0
2022-07-06 17:29:53.977501,784,-1573,-1676,850,2022-07-06 10.59.53.000000 PM,1930475,1,0.0,0.0,0.0,0.0,0.0,0.0
2022-07-06 17:29:53.978503,784,-1573,-1676,850,2022-07-06 10.59.53.000000 PM,1930485,1,0.0,0.0,0.0,0.0,0.0,0.0
2022-07-06 17:29:53.978503,784,-1573,-1676,850,2022-07-06 10.59.53.000000 PM,1930495,1,0.0,0.0,0.0,0.0,0.0,0.0
2022-07-06 17:29:53.979505,784,-1573,-1676,850,2022-07-06 10.59.53.000000 PM,1930505,1,0.0,0.0,0.0,0.0,0.0,0.0
2022-07-06 17:29:54.026499,784,-1573,-1676,850,2022-07-06 10.59.53.000000 PM,1930515,1,0.0,0.0,0.0,0.0,0.0,0.0
2022-07-06 17:29:54.026499,784,-1573,-1676,850,2022-07-06 10.59.53.000000 PM,1930525,1,0.0,0.0,0.0,0.0,0.0,0.0
2022-07-06 17:29:54.027525,784,-1573,-1677,850,2022-07-06 10.59.53.000000 PM,1930535,1,0.0,0.0,0.0,0.0,0.0,0.0
2022-07-06 17:29:54.027525,784,-1573,-1677,850,2022-07-06 10.59.53.000000 PM,1930545,1,0.0,0.0,0.0,0.0,0.0,0.0
2022-07-06 17:29:54.059499,784,-1573,-1677,850,2022-07-06 10.59.53.000000 PM,1930555,1,0.0,0.0,0.0,0.0,0.0,0.0
2022-07-06 17:29:54.060498,784,-1573,-1677,850,2022-07-06 10.59.53.000000 PM,1930565,1,0.0,0.0,0.0,0.0,0.0,0.0
2022-07-06 17:29:54.060498,784,-1574,-1678,850,2022-07-06 10.59.53.000000 PM,1930575,1,0.0,0.0,0.0,0.0,0.0,0.0
2022-07-06 17:29:54.061502,784,-1574,-1678,850,2022-07-06 10.59.53.000000 PM,1930585,1,0.0,0.0,0.0,0.0,0.0,0.0
2022-07-06 17:29:54.092531,784,-1575,-1679,850,2022-07-06 10.59.53.000000 PM,1930595,1,0.0,0.0,0.0,0.0,0.0,0.0
2022-07-06 17:29:54.093501,783,-1576,-1680,850,2022-07-06 10.59.53.000000 PM,1930605,1,0.0,0.0,0.0,0.0,0.0,0.0
2022-07-06 17:29:54.093501,783,-1576,-1681,850,2022-07-06 10.59.53.000000 PM,1930615,1,0.0,0.0,0.0,0.0,0.0,0.0
2022-07-06 17:29:54.093501,783,-1577,-1682,850,2022-07-06 10.59.53.000000 PM,1930625,1,0.0,0.0,0.0,0.0,0.0,0.0
2022-07-06 17:29:54.094500,782,-1578,-1683,850,2022-07-06 10.59.53.000000 PM,1930635,1,0.0,0.0,0.0,0.0,0.0,0.0
2022-07-06 17:29:54.137499,782,-1580,-1685,850,2022-07-06 10.59.53.000000 PM,1930645,1,0.0,0.0,0.0,0.0,0.0,0.0
2022-07-06 17:29:54.138505,781,-1581,-1686,850,2022-07-06 10.59.53.000000 PM,1930655,1,0.0,0.0,0.0,0.0,0.0,0.0
2022-07-06 17:29:54.138505,781,-1582,-1688,851,2022-07-06 10.59.53.000000 PM,1930665,1,0.0,0.0,0.0,0.0,0.0,0.0
2022-07-06 17:29:54.138505,780,-1584,-1690,851,2022-07-06 10.59.53.000000 PM,1930675,1,0.0,0.0,0.0,0.0,0.0,0.0
2022-07-06 17:29:54.191508,780,-1585,-1691,851,2022-07-06 10.59.53.000000 PM,1930685,1,0.0,0.0,0.0,0.0,0.0,0.0
2022-07-06 17:29:54.191508,779,-1586,-1692,851,2022-07-06 10.59.53.000000 PM,1930695,1,0.0,0.0,0.0,0.0,0.0,0.0
2022-07-06 17:29:54.192500,779,-1588,-1694,851,2022-07-06 10.59.53.000000 PM,1930705,1,0.0,0.0,0.0,0.0,0.0,0.0
2022-07-06 17:29:54.192500,778,-1589,-1695,851,2022-07-06 10.59.53.000000 PM,1930715,1,0.0,0.0,0.0,0.0,0.0,0.0
2022-07-06 17:29:54.206499,778,-1589,-1695,850,2022-07-06 10.59.53.000000 PM,1930725,1,0.0,0.0,0.0,0.0,0.0,0.0
2022-07-06 17:29:54.206499,778,-1589,-1696,850,2022-07-06 10.59.53.000000 PM,1930735,1,0.0,0.0,0.0,0.0,0.0,0.0
2022-07-06 17:29:54.207500,778,-1590,-1696,850,2022-07-06 10.59.53.000000 PM,1930745,1,0.0,0.0,0.0,0.0,0.0,0.0
2022-07-06 17:29:54.207500,778,-1590,-1696,850,2022-07-06 10.59.53.000000 PM,1930755,1,0.0,0.0,0.0,0.0,0.0,0.0
2022-07-06 17:29:54.258500,778,-1590,-1696,850,2022-07-06 10.59.53.000000 PM,1930765,1,0.0,0.0,0.0,0.0,0.0,0.0
2022-07-06 17:29:54.259500,778,-1590,-1696,850,2022-07-06 10.59.53.000000 PM,1930775,1,0.0,0.0,0.0,0.0,0.0,0.0
2022-07-06 17:29:54.259500,778,-1590,-1696,850,2022-07-06 10.59.53.000000 PM,1930785,1,0.0,0.0,0.0,0.0,0.0,0.0
2022-07-06 17:29:54.260499,778,-1590,-1696,850,2022-07-06 10.59.53.000000 PM,1930795,1,0.0,0.0,0.0,0.0,0.0,0.0
2022-07-06 17:29:54.311502,778,-1590,-1696,850,2022-07-06 10.59.53.000000 PM,1930805,1,0.0,0.0,0.0,0.0,0.0,0.0
2022-07-06 17:29:54.312509,778,-1590,-1696,850,2022-07-06 10.59.53.000000 PM,1930815,1,0.0,0.0,0.0,0.0,0.0,0.0
2022-07-06 17:29:54.313502,778,-1590,-1696,850,2022-07-06 10.59.53.000000 PM,1930825,1,0.0,0.0,0.0,0.0,0.0,0.0
2022-07-06 17:29:54.313502,778,-1590,-1696,850,2022-07-06 10.59.53.000000 PM,1930835,1,0.0,0.0,0.0,0.0,0.0,0.0
2022-07-06 17:29:54.345499,778,-1590,-1696,850,2022-07-06 10.59.53.000000 PM,1930845,1,0.0,0.0,0.0,0.0,0.0,0.0
2022-07-06 17:29:54.345499,778,-1590,-1697,850,2022-07-06 10.59.53.000000 PM,1930855,1,0.0,0.0,0.0,0.0,0.0,0.0
2022-07-06 17:29:54.346516,778,-1590,-1697,850,2022-07-06 10.59.53.000000 PM,1930865,1,0.0,0.0,0.0,0.0,0.0,0.0
2022-07-06 17:29:54.346516,777,-1591,-1697,850,2022-07-06 10.59.53.000000 PM,1930875,1,0.0,0.0,0.0,0.0,0.0,0.0
2022-07-06 17:29:54.386499,777,-1592,-1698,850,2022-07-06 10.59.53.000000 PM,1930885,1,0.0,0.0,0.0,0.0,0.0,0.0
2022-07-06 17:29:54.386499,777,-1592,-1699,850,2022-07-06 10.59.53.000000 PM,1930895,1,0.0,0.0,0.0,0.0,0.0,0.0
2022-07-06 17:29:54.387500,776,-1593,-1699,850,2022-07-06 10.59.53.000000 PM,1930905,1,0.0,0.0,0.0,0.0,0.0,0.0
2022-07-06 17:29:54.387500,776,-1593,-1700,849,2022-07-06 10.59.53.000000 PM,1930915,1,0.0,0.0,0.0,0.0,0.0,0.0
2022-07-06 17:29:54.421499,776,-1594,-1700,849,2022-07-06 10.59.53.000000 PM,1930925,1,0.0,0.0,0.0,0.0,0.0,0.0
2022-07-06 17:29:54.421499,775,-1594,-1701,849,2022-07-06 10.59.53.000000 PM,1930935,1,0.0,0.0,0.0,0.0,0.0,0.0
2022-07-06 17:29:54.422501,775,-1594,-1701,849,2022-07-06 10.59.53.000000 PM,1930945,1,0.0,0.0,0.0,0.0,0.0,0.0
2022-07-06 17:29:54.422501,775,-1594,-1700,849,2022-07-06 10.59.53.000000 PM,1930955,1,0.0,0.0,0.0,0.0,0.0,0.0
2022-07-06 17:29:54.445500,776,-1594,-1700,849,2022-07-06 10.59.53.000000 PM,1930965,1,0.0,0.0,0.0,0.0,0.0,0.0
2022-07-06 17:29:54.446499,776,-1594,-1700,849,2022-07-06 10.59.53.000000 PM,1930975,1,0.0,0.0,0.0,0.0,0.0,0.0
2022-07-06 17:29:54.446499,777,-1593,-1699,850,2022-07-06 10.59.53.000000 PM,1930985,1,0.0,0.0,0.0,0.0,0.0,0.0
2022-07-06 17:29:54.447536,777,-1593,-1699,850,2022-07-06 10.59.53.000000 PM,1930995,1,0.0,0.0,0.0,0.0,0.0,0.0
2022-07-06 17:29:54.491500,777,-1592,-1698,850,2022-07-06 10.59.53.000000 PM,1931005,1,0.0,0.0,0.0,0.0,0.0,0.0
2022-07-06 17:29:54.492504,778,-1592,-1698,851,2022-07-06 10.59.53.000000 PM,1931015,1,0.0,0.0,0.0,0.0,0.0,0.0
2022-07-06 17:29:54.492504,778,-1592,-1698,851,2022-07-06 10.59.53.000000 PM,1931025,1,0.0,0.0,0.0,0.0,0.0,0.0
2022-07-06 17:29:54.493499,778,-1592,-1698,851,2022-07-06 10.59.53.000000 PM,1931035,1,0.0,0.0,0.0,0.0,0.0,0.0
2022-07-06 17:29:54.543501,778,-1592,-1698,851,2022-07-06 10.59.53.000000 PM,1931045,1,0.0,0.0,0.0,0.0,0.0,0.0
2022-07-06 17:29:54.544501,778,-1592,-1698,851,2022-07-06 10.59.53.000000 PM,1931055,1,0.0,0.0,0.0,0.0,0.0,0.0
2022-07-06 17:29:54.544501,778,-1592,-1698,851,2022-07-06 10.59.53.000000 PM,1931065,1,0.0,0.0,0.0,0.0,0.0,0.0
2022-07-06 17:29:54.545511,778,-1592,-1698,851,2022-07-06 10.59.53.000000 PM,1931075,1,0.0,0.0,0.0,0.0,0.0,0.0
2022-07-06 17:29:54.577499,778,-1592,-1698,851,2022-07-06 10.59.53.000000 PM,1931085,1,0.0,0.0,0.0,0.0,0.0,0.0
2022-07-06 17:29:54.578500,778,-1592,-1698,851,2022-07-06 10.59.53.000000 PM,1931095,1,0.0,0.0,0.0,0.0,0.0,0.0
2022-07-06 17:29:54.578500,778,-1592,-1698,851,2022-07-06 10.59.53.000000 PM,1931105,1,0.0,0.0,0.0,0.0,0.0,0.0
2022-07-06 17:29:54.579502,778,-1592,-1698,851,2022-07-06 10.59.53.000000 PM,1931115,1,0.0,0.0,0.0,0.0,0.0,0.0
2022-07-06 17:29:54.637604,778,-1592,-1698,851,2022-07-06 10.59.53.000000 PM,1931125,1,0.0,0.0,0.0,0.0,0.0,0.0
2022-07-06 17:29:54.637604,778,-1592,-1698,851,2022-07-06 10.59.53.000000 PM,1931135,1,0.0,0.0,0.0,0.0,0.0,0.0
2022-07-06 17:29:54.638604,778,-1592,-1698,851,2022-07-06 10.59.53.000000 PM,1931145,1,0.0,0.0,0.0,0.0,0.0,0.0
2022-07-06 17:29:54.639607,778,-1592,-1698,851,2022-07-06 10.59.53.000000 PM,1931155,1,0.0,0.0,0.0,0.0,0.0,0.0
2022-07-06 17:29:54.641605,778,-1592,-1698,851,2022-07-06 10.59.53.000000 PM,1931166,1,0.0,0.0,0.0,0.0,0.0,0.0
2022-07-06 17:29:54.641605,778,-1592,-1698,851,2022-07-06 10.59.53.000000 PM,1931176,1,0.0,0.0,0.0,0.0,0.0,0.0
2022-07-06 17:29:54.642605,778,-1592,-1698,851,2022-07-06 10.59.53.000000 PM,1931186,1,0.0,0.0,0.0,0.0,0.0,0.0
2022-07-06 17:29:54.643604,778,-1592,-1698,851,2022-07-06 10.59.53.000000 PM,1931196,1,0.0,0.0,0.0,0.0,0.0,0.0
2022-07-06 17:29:54.701603,778,-1592,-1698,851,2022-07-06 10.59.53.000000 PM,1931206,1,0.0,0.0,0.0,0.0,0.0,0.0
2022-07-06 17:29:54.701603,778,-1592,-1698,851,2022-07-06 10.59.53.000000 PM,1931216,1,0.0,0.0,0.0,0.0,0.0,0.0
2022-07-06 17:29:54.702603,778,-1592,-1698,851,2022-07-06 10.59.53.000000 PM,1931226,1,0.0,0.0,0.0,0.0,0.0,0.0
2022-07-06 17:29:54.702603,778,-1592,-1699,851,2022-07-06 10.59.53.000000 PM,1931236,1,0.0,0.0,0.0,0.0,0.0,0.0
2022-07-06 17:29:54.751603,778,-1592,-1699,851,2022-07-06 10.59.53.000000 PM,1931246,1,0.0,0.0,0.0,0.0,0.0,0.0
2022-07-06 17:29:54.751603,778,-1592,-1699,851,2022-07-06 10.59.53.000000 PM,1931256,1,0.0,0.0,0.0,0.0,0.0,0.0
2022-07-06 17:29:54.752603,778,-1592,-1699,851,2022-07-06 10.59.53.000000 PM,1931266,1,0.0,0.0,0.0,0.0,0.0,0.0
2022-07-06 17:29:54.752603,778,-1592,-1699,851,2022-07-06 10.59.53.000000 PM,1931276,1,0.0,0.0,0.0,0.0,0.0,0.0
2022-07-06 17:29:54.768605,778,-1592,-1699,851,2022-07-06 10.59.53.000000 PM,1931286,1,0.0,0.0,0.0,0.0,0.0,0.0
2022-07-06 17:29:54.768605,778,-1592,-1699,851,2022-07-06 10.59.53.000000 PM,1931296,1,0.0,0.0,0.0,0.0,0.0,0.0
2022-07-06 17:29:54.769604,778,-1592,-1699,851,2022-07-06 10.59.53.000000 PM,1931306,1,0.0,0.0,0.0,0.0,0.0,0.0
2022-07-06 17:29:54.769604,778,-1592,-1699,851,2022-07-06 10.59.54.000000 PM,1931316,1,0.0,0.0,0.0,0.0,0.0,0.0
2022-07-06 17:29:54.812605,778,-1592,-1699,851,2022-07-06 10.59.54.000000 PM,1931326,1,0.0,0.0,0.0,0.0,0.0,0.0
2022-07-06 17:29:54.813606,778,-1592,-1699,851,2022-07-06 10.59.54.000000 PM,1931336,1,0.0,0.0,0.0,0.0,0.0,0.0
2022-07-06 17:29:54.813606,778,-1592,-1699,851,2022-07-06 10.59.54.000000 PM,1931346,1,0.0,0.0,0.0,0.0,0.0,0.0
2022-07-06 17:29:54.814603,778,-1592,-1699,851,2022-07-06 10.59.54.000000 PM,1931356,1,0.0,0.0,0.0,0.0,0.0,0.0
2022-07-06 17:29:54.881605,778,-1592,-1699,851,2022-07-06 10.59.54.000000 PM,1931366,1,0.0,0.0,0.0,0.0,0.0,0.0
2022-07-06 17:29:54.881605,778,-1592,-1699,851,2022-07-06 10.59.54.000000 PM,1931376,1,0.0,0.0,0.0,0.0,0.0,0.0
2022-07-06 17:29:54.882605,778,-1592,-1699,851,2022-07-06 10.59.54.000000 PM,1931386,1,0.0,0.0,0.0,0.0,0.0,0.0
2022-07-06 17:29:54.883610,778,-1593,-1699,851,2022-07-06 10.59.54.000000 PM,1931396,1,0.0,0.0,0.0,0.0,0.0,0.0
2022-07-06 17:29:54.900604,777,-1593,-1700,851,2022-07-06 10.59.54.000000 PM,1931406,1,0.0,0.0,0.0,0.0,0.0,0.0
2022-07-06 17:29:54.900604,777,-1593,-1700,851,2022-07-06 10.59.54.000000 PM,1931416,1,0.0,0.0,0.0,0.0,0.0,0.0
2022-07-06 17:29:54.901604,777,-1594,-1701,851,2022-07-06 10.59.54.000000 PM,1931426,1,0.0,0.0,0.0,0.0,0.0,0.0
2022-07-06 17:29:54.902604,777,-1595,-1702,851,2022-07-06 10.59.54.000000 PM,1931436,1,0.0,0.0,0.0,0.0,0.0,0.0
2022-07-06 17:29:54.941603,777,-1596,-1703,851,2022-07-06 10.59.54.000000 PM,1931446,1,0.0,0.0,0.0,0.0,0.0,0.0
2022-07-06 17:29:54.941603,777,-1597,-1704,851,2022-07-06 10.59.54.000000 PM,1931456,1,0.0,0.0,0.0,0.0,0.0,0.0
2022-07-06 17:29:54.942603,776,-1597,-1705,851,2022-07-06 10.59.54.000000 PM,1931466,1,0.0,0.0,0.0,0.0,0.0,0.0
2022-07-06 17:29:54.942603,775,-1598,-1706,850,2022-07-06 10.59.54.000000 PM,1931476,1,0.0,0.0,0.0,0.0,0.0,0.0
2022-07-06 17:29:55.000604,775,-1598,-1706,850,2022-07-06 10.59.54.000000 PM,1931486,1,0.0,0.0,0.0,0.0,0.0,0.0
2022-07-06 17:29:55.000604,774,-1599,-1706,849,2022-07-06 10.59.54.000000 PM,1931496,1,0.0,0.0,0.0,0.0,0.0,0.0
2022-07-06 17:29:55.000604,774,-1599,-1706,849,2022-07-06 10.59.54.000000 PM,1931506,1,0.0,0.0,0.0,0.0,0.0,0.0
2022-07-06 17:29:55.001604,774,-1599,-1706,849,2022-07-06 10.59.54.000000 PM,1931516,1,0.0,0.0,0.0,0.0,0.0,0.0
2022-07-06 17:29:55.008604,774,-1599,-1706,849,2022-07-06 10.59.54.000000 PM,1931526,1,0.0,0.0,0.0,0.0,0.0,0.0
2022-07-06 17:29:55.009604,775,-1599,-1706,849,2022-07-06 10.59.54.000000 PM,1931536,1,0.0,0.0,0.0,0.0,0.0,0.0
2022-07-06 17:29:55.009604,775,-1599,-1706,850,2022-07-06 10.59.54.000000 PM,1931546,1,0.0,0.0,0.0,0.0,0.0,0.0
2022-07-06 17:29:55.010605,775,-1599,-1706,850,2022-07-06 10.59.54.000000 PM,1931556,1,0.0,0.0,0.0,0.0,0.0,0.0
2022-07-06 17:29:55.064602,775,-1598,-1705,850,2022-07-06 10.59.54.000000 PM,1931566,1,0.0,0.0,0.0,0.0,0.0,0.0
2022-07-06 17:29:55.065605,775,-1598,-1705,850,2022-07-06 10.59.54.000000 PM,1931576,1,0.0,0.0,0.0,0.0,0.0,0.0
2022-07-06 17:29:55.065605,775,-1598,-1705,850,2022-07-06 10.59.54.000000 PM,1931586,1,0.0,0.0,0.0,0.0,0.0,0.0
2022-07-06 17:29:55.066606,775,-1598,-1705,850,2022-07-06 10.59.54.000000 PM,1931596,1,0.0,0.0,0.0,0.0,0.0,0.0
2022-07-06 17:29:55.120604,775,-1598,-1705,850,2022-07-06 10.59.54.000000 PM,1931606,1,0.0,0.0,0.0,0.0,0.0,0.0
2022-07-06 17:29:55.120604,775,-1598,-1705,850,2022-07-06 10.59.54.000000 PM,1931616,1,0.0,0.0,0.0,0.0,0.0,0.0
2022-07-06 17:29:55.120604,775,-1598,-1705,850,2022-07-06 10.59.54.000000 PM,1931626,1,0.0,0.0,0.0,0.0,0.0,0.0
2022-07-06 17:29:55.121604,776,-1598,-1705,850,2022-07-06 10.59.54.000000 PM,1931636,1,0.0,0.0,0.0,0.0,0.0,0.0
2022-07-06 17:29:55.124635,776,-1598,-1705,850,2022-07-06 10.59.54.000000 PM,1931646,1,0.0,0.0,0.0,0.0,0.0,0.0
2022-07-06 17:29:55.125605,776,-1598,-1705,850,2022-07-06 10.59.54.000000 PM,1931656,1,0.0,0.0,0.0,0.0,0.0,0.0
2022-07-06 17:29:55.125605,776,-1598,-1705,850,2022-07-06 10.59.54.000000 PM,1931666,1,0.0,0.0,0.0,0.0,0.0,0.0
2022-07-06 17:29:55.126603,776,-1598,-1705,850,2022-07-06 10.59.54.000000 PM,1931676,1,0.0,0.0,0.0,0.0,0.0,0.0
2022-07-06 17:29:55.172603,776,-1598,-1705,850,2022-07-06 10.59.54.000000 PM,1931686,1,0.0,0.0,0.0,0.0,0.0,0.0
2022-07-06 17:29:55.172603,776,-1598,-1705,850,2022-07-06 10.59.54.000000 PM,1931696,1,0.0,0.0,0.0,0.0,0.0,0.0
2022-07-06 17:29:55.173603,776,-1598,-1705,850,2022-07-06 10.59.54.000000 PM,1931706,1,0.0,0.0,0.0,0.0,0.0,0.0
2022-07-06 17:29:55.173603,776,-1598,-1705,850,2022-07-06 10.59.54.000000 PM,1931716,1,0.0,0.0,0.0,0.0,0.0,0.0
2022-07-06 17:29:55.224605,776,-1598,-1705,850,2022-07-06 10.59.54.000000 PM,1931726,1,0.0,0.0,0.0,0.0,0.0,0.0
2022-07-06 17:29:55.225606,776,-1598,-1705,850,2022-07-06 10.59.54.000000 PM,1931736,1,0.0,0.0,0.0,0.0,0.0,0.0
2022-07-06 17:29:55.225606,776,-1598,-1705,850,2022-07-06 10.59.54.000000 PM,1931746,1,0.0,0.0,0.0,0.0,0.0,0.0
2022-07-06 17:29:55.226605,776,-1598,-1705,850,2022-07-06 10.59.54.000000 PM,1931756,1,0.0,0.0,0.0,0.0,0.0,0.0
2022-07-06 17:29:55.226605,776,-1598,-1705,850,2022-07-06 10.59.54.000000 PM,1931766,1,0.0,0.0,0.0,0.0,0.0,0.0
2022-07-06 17:29:55.275605,776,-1598,-1705,850,2022-07-06 10.59.54.000000 PM,1931776,1,0.0,0.0,0.0,0.0,0.0,0.0
2022-07-06 17:29:55.275605,776,-1598,-1705,850,2022-07-06 10.59.54.000000 PM,1931786,1,0.0,0.0,0.0,0.0,0.0,0.0
2022-07-06 17:29:55.275605,776,-1598,-1705,850,2022-07-06 10.59.54.000000 PM,1931796,1,0.0,0.0,0.0,0.0,0.0,0.0
2022-07-06 17:29:55.276605,776,-1598,-1705,850,2022-07-06 10.59.54.000000 PM,1931806,1,0.0,0.0,0.0,0.0,0.0,0.0
2022-07-06 17:29:55.301602,776,-1598,-1705,850,2022-07-06 10.59.54.000000 PM,1931816,1,0.0,0.0,0.0,0.0,0.0,0.0
2022-07-06 17:29:55.301602,776,-1598,-1705,851,2022-07-06 10.59.54.000000 PM,1931826,1,0.0,0.0,0.0,0.0,0.0,0.0
2022-07-06 17:29:55.302606,776,-1598,-1705,851,2022-07-06 10.59.54.000000 PM,1931836,1,0.0,0.0,0.0,0.0,0.0,0.0
2022-07-06 17:29:55.302606,776,-1598,-1705,851,2022-07-06 10.59.54.000000 PM,1931846,1,0.0,0.0,0.0,0.0,0.0,0.0
2022-07-06 17:29:55.365607,776,-1598,-1705,851,2022-07-06 10.59.54.000000 PM,1931856,1,0.0,0.0,0.0,0.0,0.0,0.0
2022-07-06 17:29:55.365607,776,-1598,-1705,851,2022-07-06 10.59.54.000000 PM,1931866,1,0.0,0.0,0.0,0.0,0.0,0.0
2022-07-06 17:29:55.366606,776,-1598,-1705,851,2022-07-06 10.59.54.000000 PM,1931876,1,0.0,0.0,0.0,0.0,0.0,0.0
2022-07-06 17:29:55.366606,776,-1598,-1705,851,2022-07-06 10.59.54.000000 PM,1931886,1,0.0,0.0,0.0,0.0,0.0,0.0
2022-07-06 17:29:55.412606,776,-1598,-1705,851,2022-07-06 10.59.54.000000 PM,1931896,1,0.0,0.0,0.0,0.0,0.0,0.0
2022-07-06 17:29:55.412606,776,-1598,-1705,851,2022-07-06 10.59.54.000000 PM,1931906,1,0.0,0.0,0.0,0.0,0.0,0.0
2022-07-06 17:29:55.413606,776,-1598,-1705,851,2022-07-06 10.59.54.000000 PM,1931916,1,0.0,0.0,0.0,0.0,0.0,0.0
2022-07-06 17:29:55.413606,776,-1598,-1705,851,2022-07-06 10.59.54.000000 PM,1931926,1,0.0,0.0,0.0,0.0,0.0,0.0
2022-07-06 17:29:55.419605,776,-1598,-1704,851,2022-07-06 10.59.54.000000 PM,1931936,1,0.0,0.0,0.0,0.0,0.0,0.0
2022-07-06 17:29:55.419605,776,-1598,-1704,851,2022-07-06 10.59.54.000000 PM,1931946,1,0.0,0.0,0.0,0.0,0.0,0.0
2022-07-06 17:29:55.420605,776,-1598,-1704,851,2022-07-06 10.59.54.000000 PM,1931956,1,0.0,0.0,0.0,0.0,0.0,0.0
2022-07-06 17:29:55.420605,776,-1598,-1704,851,2022-07-06 10.59.54.000000 PM,1931966,1,0.0,0.0,0.0,0.0,0.0,0.0
2022-07-06 17:29:55.477605,776,-1598,-1705,851,2022-07-06 10.59.54.000000 PM,1931976,1,0.0,0.0,0.0,0.0,0.0,0.0
2022-07-06 17:29:55.477605,776,-1598,-1705,851,2022-07-06 10.59.54.000000 PM,1931986,1,0.0,0.0,0.0,0.0,0.0,0.0
2022-07-06 17:29:55.478603,776,-1598,-1705,851,2022-07-06 10.59.54.000000 PM,1931997,1,0.0,0.0,0.0,0.0,0.0,0.0
2022-07-06 17:29:55.479612,776,-1598,-1705,851,2022-07-06 10.59.54.000000 PM,1932007,1,0.0,0.0,0.0,0.0,0.0,0.0
2022-07-06 17:29:55.524605,776,-1598,-1705,851,2022-07-06 10.59.54.000000 PM,1932017,1,0.0,0.0,0.0,0.0,0.0,0.0
2022-07-06 17:29:55.525604,776,-1598,-1705,851,2022-07-06 10.59.54.000000 PM,1932027,1,0.0,0.0,0.0,0.0,0.0,0.0
2022-07-06 17:29:55.526605,776,-1598,-1705,850,2022-07-06 10.59.54.000000 PM,1932037,1,0.0,0.0,0.0,0.0,0.0,0.0
2022-07-06 17:29:55.526605,776,-1598,-1705,850,2022-07-06 10.59.54.000000 PM,1932047,1,0.0,0.0,0.0,0.0,0.0,0.0
2022-07-06 17:29:55.556606,776,-1598,-1705,850,2022-07-06 10.59.54.000000 PM,1932057,1,0.0,0.0,0.0,0.0,0.0,0.0
2022-07-06 17:29:55.556606,776,-1598,-1705,850,2022-07-06 10.59.54.000000 PM,1932067,1,0.0,0.0,0.0,0.0,0.0,0.0
2022-07-06 17:29:55.557605,776,-1598,-1705,850,2022-07-06 10.59.54.000000 PM,1932077,1,0.0,0.0,0.0,0.0,0.0,0.0
2022-07-06 17:29:55.557605,776,-1598,-1705,850,2022-07-06 10.59.54.000000 PM,1932087,1,0.0,0.0,0.0,0.0,0.0,0.0
2022-07-06 17:29:55.584605,776,-1598,-1705,851,2022-07-06 10.59.54.000000 PM,1932097,1,0.0,0.0,0.0,0.0,0.0,0.0
2022-07-06 17:29:55.584605,776,-1598,-1705,851,2022-07-06 10.59.54.000000 PM,1932107,1,0.0,0.0,0.0,0.0,0.0,0.0
2022-07-06 17:29:55.585606,776,-1598,-1705,851,2022-07-06 10.59.54.000000 PM,1932117,1,0.0,0.0,0.0,0.0,0.0,0.0
2022-07-06 17:29:55.585606,776,-1598,-1704,851,2022-07-06 10.59.54.000000 PM,1932127,1,0.0,0.0,0.0,0.0,0.0,0.0
2022-07-06 17:29:55.634602,776,-1598,-1704,851,2022-07-06 10.59.54.000000 PM,1932137,1,0.0,0.0,0.0,0.0,0.0,0.0
2022-07-06 17:29:55.635611,776,-1598,-1704,851,2022-07-06 10.59.54.000000 PM,1932147,1,0.0,0.0,0.0,0.0,0.0,0.0
2022-07-06 17:29:55.635611,776,-1598,-1704,851,2022-07-06 10.59.54.000000 PM,1932157,1,0.0,0.0,0.0,0.0,0.0,0.0
2022-07-06 17:29:55.636604,776,-1598,-1704,851,2022-07-06 10.59.54.000000 PM,1932167,1,0.0,0.0,0.0,0.0,0.0,0.0
2022-07-06 17:29:55.661610,776,-1598,-1704,851,2022-07-06 10.59.54.000000 PM,1932177,1,0.0,0.0,0.0,0.0,0.0,0.0
2022-07-06 17:29:55.662609,776,-1598,-1704,851,2022-07-06 10.59.54.000000 PM,1932187,1,0.0,0.0,0.0,0.0,0.0,0.0
2022-07-06 17:29:55.662609,776,-1598,-1704,851,2022-07-06 10.59.54.000000 PM,1932197,1,0.0,0.0,0.0,0.0,0.0,0.0
2022-07-06 17:29:55.663605,776,-1598,-1704,851,2022-07-06 10.59.54.000000 PM,1932207,1,0.0,0.0,0.0,0.0,0.0,0.0
2022-07-06 17:29:55.726604,776,-1598,-1704,851,2022-07-06 10.59.54.000000 PM,1932217,1,0.0,0.0,0.0,0.0,0.0,0.0
2022-07-06 17:29:55.726604,776,-1598,-1704,851,2022-07-06 10.59.54.000000 PM,1932227,1,0.0,0.0,0.0,0.0,0.0,0.0
2022-07-06 17:29:55.727604,776,-1598,-1704,851,2022-07-06 10.59.54.000000 PM,1932237,1,0.0,0.0,0.0,0.0,0.0,0.0
2022-07-06 17:29:55.728604,776,-1598,-1704,851,2022-07-06 10.59.54.000000 PM,1932247,1,0.0,0.0,0.0,0.0,0.0,0.0
2022-07-06 17:29:55.757606,776,-1598,-1704,851,2022-07-06 10.59.54.000000 PM,1932257,1,0.0,0.0,0.0,0.0,0.0,0.0
2022-07-06 17:29:55.757606,777,-1597,-1704,851,2022-07-06 10.59.54.000000 PM,1932267,1,0.0,0.0,0.0,0.0,0.0,0.0
2022-07-06 17:29:55.758605,777,-1597,-1704,851,2022-07-06 10.59.54.000000 PM,1932277,1,0.0,0.0,0.0,0.0,0.0,0.0
2022-07-06 17:29:55.759604,777,-1597,-1704,851,2022-07-06 10.59.54.000000 PM,1932287,1,0.0,0.0,0.0,0.0,0.0,0.0
2022-07-06 17:29:55.800606,777,-1597,-1704,851,2022-07-06 10.59.54.000000 PM,1932297,1,0.0,0.0,0.0,0.0,0.0,0.0
2022-07-06 17:29:55.801605,777,-1597,-1704,851,2022-07-06 10.59.54.000000 PM,1932307,1,0.0,0.0,0.0,0.0,0.0,0.0
2022-07-06 17:29:55.801605,777,-1597,-1704,851,2022-07-06 10.59.55.000000 PM,1932317,1,0.0,0.0,0.0,0.0,0.0,0.0
2022-07-06 17:29:55.802605,777,-1597,-1704,851,2022-07-06 10.59.55.000000 PM,1932327,1,0.0,0.0,0.0,0.0,0.0,0.0
2022-07-06 17:29:55.826603,777,-1597,-1704,851,2022-07-06 10.59.55.000000 PM,1932337,1,0.0,0.0,0.0,0.0,0.0,0.0
2022-07-06 17:29:55.826603,777,-1597,-1704,851,2022-07-06 10.59.55.000000 PM,1932347,1,0.0,0.0,0.0,0.0,0.0,0.0
2022-07-06 17:29:55.826603,777,-1597,-1704,851,2022-07-06 10.59.55.000000 PM,1932357,1,0.0,0.0,0.0,0.0,0.0,0.0
2022-07-06 17:29:55.827604,777,-1597,-1704,851,2022-07-06 10.59.55.000000 PM,1932367,1,0.0,0.0,0.0,0.0,0.0,0.0
2022-07-06 17:29:55.890604,777,-1597,-1704,851,2022-07-06 10.59.55.000000 PM,1932377,1,0.0,0.0,0.0,0.0,0.0,0.0
2022-07-06 17:29:55.890604,777,-1597,-1704,851,2022-07-06 10.59.55.000000 PM,1932387,1,0.0,0.0,0.0,0.0,0.0,0.0
2022-07-06 17:29:55.891609,777,-1597,-1704,851,2022-07-06 10.59.55.000000 PM,1932397,1,0.0,0.0,0.0,0.0,0.0,0.0
2022-07-06 17:29:55.891609,777,-1597,-1704,851,2022-07-06 10.59.55.000000 PM,1932407,1,0.0,0.0,0.0,0.0,0.0,0.0
2022-07-06 17:29:55.898604,776,-1597,-1705,851,2022-07-06 10.59.55.000000 PM,1932417,1,0.0,0.0,0.0,0.0,0.0,0.0
2022-07-06 17:29:55.899604,776,-1597,-1705,851,2022-07-06 10.59.55.000000 PM,1932427,1,0.0,0.0,0.0,0.0,0.0,0.0
2022-07-06 17:29:55.899604,776,-1597,-1705,851,2022-07-06 10.59.55.000000 PM,1932437,1,0.0,0.0,0.0,0.0,0.0,0.0
2022-07-06 17:29:55.900604,776,-1597,-1705,851,2022-07-06 10.59.55.000000 PM,1932447,1,0.0,0.0,0.0,0.0,0.0,0.0
2022-07-06 17:29:55.946605,776,-1597,-1705,851,2022-07-06 10.59.55.000000 PM,1932457,1,0.0,0.0,0.0,0.0,0.0,0.0
2022-07-06 17:29:55.946605,776,-1597,-1705,851,2022-07-06 10.59.55.000000 PM,1932467,1,0.0,0.0,0.0,0.0,0.0,0.0
2022-07-06 17:29:55.947605,776,-1597,-1705,851,2022-07-06 10.59.55.000000 PM,1932477,1,0.0,0.0,0.0,0.0,0.0,0.0
2022-07-06 17:29:55.947605,776,-1597,-1705,851,2022-07-06 10.59.55.000000 PM,1932487,1,0.0,0.0,0.0,0.0,0.0,0.0
2022-07-06 17:29:56.003602,776,-1597,-1705,851,2022-07-06 10.59.55.000000 PM,1932497,1,0.0,0.0,0.0,0.0,0.0,0.0
2022-07-06 17:29:56.004603,776,-1597,-1705,851,2022-07-06 10.59.55.000000 PM,1932507,1,0.0,0.0,0.0,0.0,0.0,0.0
2022-07-06 17:29:56.004603,776,-1597,-1705,851,2022-07-06 10.59.55.000000 PM,1932517,1,0.0,0.0,0.0,0.0,0.0,0.0
2022-07-06 17:29:56.005604,776,-1597,-1705,851,2022-07-06 10.59.55.000000 PM,1932527,1,0.0,0.0,0.0,0.0,0.0,0.0
2022-07-06 17:29:56.021604,776,-1597,-1705,851,2022-07-06 10.59.55.000000 PM,1932537,1,0.0,0.0,0.0,0.0,0.0,0.0
2022-07-06 17:29:56.021604,776,-1597,-1705,851,2022-07-06 10.59.55.000000 PM,1932547,1,0.0,0.0,0.0,0.0,0.0,0.0
2022-07-06 17:29:56.022610,776,-1597,-1705,851,2022-07-06 10.59.55.000000 PM,1932557,1,0.0,0.0,0.0,0.0,0.0,0.0
2022-07-06 17:29:56.022610,776,-1597,-1704,851,2022-07-06 10.59.55.000000 PM,1932567,1,0.0,0.0,0.0,0.0,0.0,0.0
2022-07-06 17:29:56.065636,776,-1597,-1704,851,2022-07-06 10.59.55.000000 PM,1932577,1,0.0,0.0,0.0,0.0,0.0,0.0
2022-07-06 17:29:56.065636,777,-1597,-1704,851,2022-07-06 10.59.55.000000 PM,1932587,1,0.0,0.0,0.0,0.0,0.0,0.0
2022-07-06 17:29:56.065636,777,-1597,-1704,851,2022-07-06 10.59.55.000000 PM,1932597,1,0.0,0.0,0.0,0.0,0.0,0.0
2022-07-06 17:29:56.066609,777,-1597,-1704,851,2022-07-06 10.59.55.000000 PM,1932607,1,0.0,0.0,0.0,0.0,0.0,0.0
2022-07-06 17:29:56.133604,777,-1597,-1704,851,2022-07-06 10.59.55.000000 PM,1932617,1,0.0,0.0,0.0,0.0,0.0,0.0
2022-07-06 17:29:56.134604,777,-1597,-1704,851,2022-07-06 10.59.55.000000 PM,1932627,1,0.0,0.0,0.0,0.0,0.0,0.0
2022-07-06 17:29:56.134604,777,-1597,-1704,851,2022-07-06 10.59.55.000000 PM,1932637,1,0.0,0.0,0.0,0.0,0.0,0.0
2022-07-06 17:29:56.135604,777,-1597,-1704,851,2022-07-06 10.59.55.000000 PM,1932647,1,0.0,0.0,0.0,0.0,0.0,0.0
2022-07-06 17:29:56.138604,777,-1597,-1704,851,2022-07-06 10.59.55.000000 PM,1932657,1,0.0,0.0,0.0,0.0,0.0,0.0
2022-07-06 17:29:56.139604,777,-1597,-1704,851,2022-07-06 10.59.55.000000 PM,1932667,1,0.0,0.0,0.0,0.0,0.0,0.0
2022-07-06 17:29:56.139604,777,-1597,-1704,851,2022-07-06 10.59.55.000000 PM,1932677,1,0.0,0.0,0.0,0.0,0.0,0.0
2022-07-06 17:29:56.139604,777,-1597,-1704,851,2022-07-06 10.59.55.000000 PM,1932687,1,0.0,0.0,0.0,0.0,0.0,0.0
2022-07-06 17:29:56.193635,777,-1597,-1704,851,2022-07-06 10.59.55.000000 PM,1932697,1,0.0,0.0,0.0,0.0,0.0,0.0
2022-07-06 17:29:56.194604,777,-1597,-1704,851,2022-07-06 10.59.55.000000 PM,1932707,1,0.0,0.0,0.0,0.0,0.0,0.0
2022-07-06 17:29:56.194604,777,-1597,-1704,851,2022-07-06 10.59.55.000000 PM,1932717,1,0.0,0.0,0.0,0.0,0.0,0.0
2022-07-06 17:29:56.195638,777,-1597,-1704,851,2022-07-06 10.59.55.000000 PM,1932727,1,0.0,0.0,0.0,0.0,0.0,0.0
2022-07-06 17:29:56.237607,777,-1597,-1704,851,2022-07-06 10.59.55.000000 PM,1932737,1,0.0,0.0,0.0,0.0,0.0,0.0
2022-07-06 17:29:56.237607,777,-1597,-1704,851,2022-07-06 10.59.55.000000 PM,1932747,1,0.0,0.0,0.0,0.0,0.0,0.0
2022-07-06 17:29:56.238605,777,-1597,-1704,851,2022-07-06 10.59.55.000000 PM,1932757,1,0.0,0.0,0.0,0.0,0.0,0.0
2022-07-06 17:29:56.239644,777,-1597,-1704,851,2022-07-06 10.59.55.000000 PM,1932767,1,0.0,0.0,0.0,0.0,0.0,0.0
2022-07-06 17:29:56.265605,777,-1597,-1704,851,2022-07-06 10.59.55.000000 PM,1932777,1,0.0,0.0,0.0,0.0,0.0,0.0
2022-07-06 17:29:56.265605,777,-1597,-1704,851,2022-07-06 10.59.55.000000 PM,1932787,1,0.0,0.0,0.0,0.0,0.0,0.0
2022-07-06 17:29:56.266606,777,-1597,-1704,851,2022-07-06 10.59.55.000000 PM,1932797,1,0.0,0.0,0.0,0.0,0.0,0.0
2022-07-06 17:29:56.266606,777,-1597,-1704,851,2022-07-06 10.59.55.000000 PM,1932807,1,0.0,0.0,0.0,0.0,0.0,0.0
2022-07-06 17:29:56.313635,777,-1597,-1704,851,2022-07-06 10.59.55.000000 PM,1932817,1,0.0,0.0,0.0,0.0,0.0,0.0
2022-07-06 17:29:56.314606,777,-1597,-1704,851,2022-07-06 10.59.55.000000 PM,1932827,1,0.0,0.0,0.0,0.0,0.0,0.0
2022-07-06 17:29:56.314606,777,-1597,-1704,851,2022-07-06 10.59.55.000000 PM,1932838,1,0.0,0.0,0.0,0.0,0.0,0.0
2022-07-06 17:29:56.315604,777,-1597,-1704,851,2022-07-06 10.59.55.000000 PM,1932848,1,0.0,0.0,0.0,0.0,0.0,0.0
2022-07-06 17:29:56.371612,777,-1597,-1704,851,2022-07-06 10.59.55.000000 PM,1932858,1,0.0,0.0,0.0,0.0,0.0,0.0
2022-07-06 17:29:56.371612,777,-1597,-1704,851,2022-07-06 10.59.55.000000 PM,1932868,1,0.0,0.0,0.0,0.0,0.0,0.0
2022-07-06 17:29:56.372604,777,-1597,-1704,851,2022-07-06 10.59.55.000000 PM,1932878,1,0.0,0.0,0.0,0.0,0.0,0.0
2022-07-06 17:29:56.373604,777,-1597,-1704,851,2022-07-06 10.59.55.000000 PM,1932888,1,0.0,0.0,0.0,0.0,0.0,0.0
2022-07-06 17:29:56.418653,777,-1597,-1704,851,2022-07-06 10.59.55.000000 PM,1932898,1,0.0,0.0,0.0,0.0,0.0,0.0
2022-07-06 17:29:56.418653,777,-1597,-1704,851,2022-07-06 10.59.55.000000 PM,1932908,1,0.0,0.0,0.0,0.0,0.0,0.0
2022-07-06 17:29:56.419604,777,-1597,-1704,851,2022-07-06 10.59.55.000000 PM,1932918,1,0.0,0.0,0.0,0.0,0.0,0.0
2022-07-06 17:29:56.419604,777,-1597,-1704,851,2022-07-06 10.59.55.000000 PM,1932928,1,0.0,0.0,0.0,0.0,0.0,0.0
2022-07-06 17:29:56.420625,777,-1597,-1704,851,2022-07-06 10.59.55.000000 PM,1932938,1,0.0,0.0,0.0,0.0,0.0,0.0
2022-07-06 17:29:56.452660,777,-1597,-1704,851,2022-07-06 10.59.55.000000 PM,1932948,1,0.0,0.0,0.0,0.0,0.0,0.0
2022-07-06 17:29:56.453604,777,-1597,-1704,852,2022-07-06 10.59.55.000000 PM,1932958,1,0.0,0.0,0.0,0.0,0.0,0.0
2022-07-06 17:29:56.453604,778,-1597,-1703,852,2022-07-06 10.59.55.000000 PM,1932968,1,0.0,0.0,0.0,0.0,0.0,0.0
2022-07-06 17:29:56.453604,778,-1596,-1703,852,2022-07-06 10.59.55.000000 PM,1932978,1,0.0,0.0,0.0,0.0,0.0,0.0
2022-07-06 17:29:56.478611,778,-1596,-1703,852,2022-07-06 10.59.55.000000 PM,1932988,1,0.0,0.0,0.0,0.0,0.0,0.0
2022-07-06 17:29:56.479620,778,-1596,-1703,852,2022-07-06 10.59.55.000000 PM,1932998,1,0.0,0.0,0.0,0.0,0.0,0.0
2022-07-06 17:29:56.479620,778,-1596,-1703,852,2022-07-06 10.59.55.000000 PM,1933008,1,0.0,0.0,0.0,0.0,0.0,0.0
2022-07-06 17:29:56.480619,778,-1596,-1703,852,2022-07-06 10.59.55.000000 PM,1933018,1,0.0,0.0,0.0,0.0,0.0,0.0
2022-07-06 17:29:56.509201,778,-1596,-1703,852,2022-07-06 10.59.55.000000 PM,1933028,1,0.0,0.0,0.0,0.0,0.0,0.0
2022-07-06 17:29:56.510218,778,-1596,-1703,852,2022-07-06 10.59.55.000000 PM,1933038,1,0.0,0.0,0.0,0.0,0.0,0.0
2022-07-06 17:29:56.510218,778,-1596,-1703,852,2022-07-06 10.59.55.000000 PM,1933048,1,0.0,0.0,0.0,0.0,0.0,0.0
2022-07-06 17:29:56.511210,778,-1596,-1703,852,2022-07-06 10.59.55.000000 PM,1933058,1,0.0,0.0,0.0,0.0,0.0,0.0
2022-07-06 17:29:56.561544,778,-1596,-1703,852,2022-07-06 10.59.55.000000 PM,1933068,1,0.0,0.0,0.0,0.0,0.0,0.0
2022-07-06 17:29:56.562536,778,-1596,-1703,852,2022-07-06 10.59.55.000000 PM,1933078,1,0.0,0.0,0.0,0.0,0.0,0.0
2022-07-06 17:29:56.562536,778,-1596,-1703,852,2022-07-06 10.59.55.000000 PM,1933088,1,0.0,0.0,0.0,0.0,0.0,0.0
2022-07-06 17:29:56.563503,778,-1596,-1703,852,2022-07-06 10.59.55.000000 PM,1933098,1,0.0,0.0,0.0,0.0,0.0,0.0
2022-07-06 17:29:56.621536,778,-1596,-1703,852,2022-07-06 10.59.55.000000 PM,1933108,1,0.0,0.0,0.0,0.0,0.0,0.0
2022-07-06 17:29:56.621536,778,-1596,-1703,852,2022-07-06 10.59.55.000000 PM,1933118,1,0.0,0.0,0.0,0.0,0.0,0.0
2022-07-06 17:29:56.622534,778,-1596,-1703,852,2022-07-06 10.59.55.000000 PM,1933128,1,0.0,0.0,0.0,0.0,0.0,0.0
2022-07-06 17:29:56.622534,778,-1596,-1703,852,2022-07-06 10.59.55.000000 PM,1933138,1,0.0,0.0,0.0,0.0,0.0,0.0
2022-07-06 17:29:56.627564,778,-1596,-1703,852,2022-07-06 10.59.55.000000 PM,1933148,1,0.0,0.0,0.0,0.0,0.0,0.0
2022-07-06 17:29:56.628534,778,-1596,-1703,852,2022-07-06 10.59.55.000000 PM,1933158,1,0.0,0.0,0.0,0.0,0.0,0.0
2022-07-06 17:29:56.628534,778,-1596,-1703,852,2022-07-06 10.59.55.000000 PM,1933168,1,0.0,0.0,0.0,0.0,0.0,0.0
2022-07-06 17:29:56.628534,778,-1596,-1703,852,2022-07-06 10.59.55.000000 PM,1933178,1,0.0,0.0,0.0,0.0,0.0,0.0
2022-07-06 17:29:56.681733,778,-1596,-1703,852,2022-07-06 10.59.55.000000 PM,1933188,1,0.0,0.0,0.0,0.0,0.0,0.0
2022-07-06 17:29:56.682535,778,-1596,-1703,852,2022-07-06 10.59.55.000000 PM,1933198,1,0.0,0.0,0.0,0.0,0.0,0.0
2022-07-06 17:29:56.682535,778,-1596,-1702,852,2022-07-06 10.59.55.000000 PM,1933208,1,0.0,0.0,0.0,0.0,0.0,0.0
2022-07-06 17:29:56.683544,778,-1596,-1702,852,2022-07-06 10.59.55.000000 PM,1933218,1,0.0,0.0,0.0,0.0,0.0,0.0
2022-07-06 17:29:56.726794,778,-1596,-1702,852,2022-07-06 10.59.55.000000 PM,1933228,1,0.0,0.0,0.0,0.0,0.0,0.0
2022-07-06 17:29:56.727812,779,-1596,-1702,852,2022-07-06 10.59.55.000000 PM,1933238,1,0.0,0.0,0.0,0.0,0.0,0.0
2022-07-06 17:29:56.727812,779,-1596,-1702,853,2022-07-06 10.59.55.000000 PM,1933248,1,0.0,0.0,0.0,0.0,0.0,0.0
2022-07-06 17:29:56.727812,779,-1596,-1702,853,2022-07-06 10.59.55.000000 PM,1933258,1,0.0,0.0,0.0,0.0,0.0,0.0
2022-07-06 17:29:56.753038,779,-1596,-1702,853,2022-07-06 10.59.55.000000 PM,1933268,1,0.0,0.0,0.0,0.0,0.0,0.0
2022-07-06 17:29:56.753038,779,-1595,-1702,853,2022-07-06 10.59.55.000000 PM,1933278,1,0.0,0.0,0.0,0.0,0.0,0.0
2022-07-06 17:29:56.754047,779,-1595,-1702,853,2022-07-06 10.59.55.000000 PM,1933288,1,0.0,0.0,0.0,0.0,0.0,0.0
2022-07-06 17:29:56.754047,779,-1595,-1702,853,2022-07-06 10.59.55.000000 PM,1933298,1,0.0,0.0,0.0,0.0,0.0,0.0
2022-07-06 17:29:56.799881,779,-1595,-1702,853,2022-07-06 10.59.55.000000 PM,1933308,1,0.0,0.0,0.0,0.0,0.0,0.0
2022-07-06 17:29:56.800882,779,-1595,-1702,853,2022-07-06 10.59.56.000000 PM,1933318,1,0.0,0.0,0.0,0.0,0.0,0.0
2022-07-06 17:29:56.800882,779,-1595,-1702,853,2022-07-06 10.59.56.000000 PM,1933328,1,0.0,0.0,0.0,0.0,0.0,0.0
2022-07-06 17:29:56.801881,779,-1595,-1702,853,2022-07-06 10.59.56.000000 PM,1933338,1,0.0,0.0,0.0,0.0,0.0,0.0
2022-07-06 17:29:56.853749,779,-1595,-1702,853,2022-07-06 10.59.56.000000 PM,1933348,1,0.0,0.0,0.0,0.0,0.0,0.0
2022-07-06 17:29:56.854649,779,-1595,-1702,853,2022-07-06 10.59.56.000000 PM,1933358,1,0.0,0.0,0.0,0.0,0.0,0.0
2022-07-06 17:29:56.854649,779,-1595,-1702,853,2022-07-06 10.59.56.000000 PM,1933368,1,0.0,0.0,0.0,0.0,0.0,0.0
2022-07-06 17:29:56.855641,779,-1595,-1702,853,2022-07-06 10.59.56.000000 PM,1933378,1,0.0,0.0,0.0,0.0,0.0,0.0
2022-07-06 17:29:56.882051,779,-1595,-1701,853,2022-07-06 10.59.56.000000 PM,1933388,1,0.0,0.0,0.0,0.0,0.0,0.0
2022-07-06 17:29:56.882051,779,-1595,-1701,853,2022-07-06 10.59.56.000000 PM,1933398,1,0.0,0.0,0.0,0.0,0.0,0.0
2022-07-06 17:29:56.883025,780,-1595,-1701,854,2022-07-06 10.59.56.000000 PM,1933408,1,0.0,0.0,0.0,0.0,0.0,0.0
2022-07-06 17:29:56.883025,780,-1595,-1701,854,2022-07-06 10.59.56.000000 PM,1933418,1,0.0,0.0,0.0,0.0,0.0,0.0
2022-07-06 17:29:56.940704,780,-1595,-1701,854,2022-07-06 10.59.56.000000 PM,1933428,1,0.0,0.0,0.0,0.0,0.0,0.0
2022-07-06 17:29:56.940704,780,-1595,-1701,854,2022-07-06 10.59.56.000000 PM,1933438,1,0.0,0.0,0.0,0.0,0.0,0.0
2022-07-06 17:29:56.941715,780,-1594,-1701,854,2022-07-06 10.59.56.000000 PM,1933448,1,0.0,0.0,0.0,0.0,0.0,0.0
2022-07-06 17:29:56.941715,780,-1594,-1701,854,2022-07-06 10.59.56.000000 PM,1933458,1,0.0,0.0,0.0,0.0,0.0,0.0
2022-07-06 17:29:56.943746,780,-1594,-1701,854,2022-07-06 10.59.56.000000 PM,1933468,1,0.0,0.0,0.0,0.0,0.0,0.0
2022-07-06 17:29:56.943746,780,-1594,-1701,854,2022-07-06 10.59.56.000000 PM,1933478,1,0.0,0.0,0.0,0.0,0.0,0.0
2022-07-06 17:29:56.944718,780,-1594,-1701,854,2022-07-06 10.59.56.000000 PM,1933488,1,0.0,0.0,0.0,0.0,0.0,0.0
2022-07-06 17:29:56.945714,780,-1594,-1701,854,2022-07-06 10.59.56.000000 PM,1933498,1,0.0,0.0,0.0,0.0,0.0,0.0
2022-07-06 17:29:57.000593,780,-1594,-1701,854,2022-07-06 10.59.56.000000 PM,1933508,1,0.0,0.0,0.0,0.0,0.0,0.0
2022-07-06 17:29:57.000593,780,-1594,-1701,854,2022-07-06 10.59.56.000000 PM,1933518,1,0.0,0.0,0.0,0.0,0.0,0.0
2022-07-06 17:29:57.001591,780,-1594,-1701,854,2022-07-06 10.59.56.000000 PM,1933528,1,0.0,0.0,0.0,0.0,0.0,0.0
2022-07-06 17:29:57.001591,780,-1594,-1701,854,2022-07-06 10.59.56.000000 PM,1933538,1,0.0,0.0,0.0,0.0,0.0,0.0
2022-07-06 17:29:57.044802,780,-1594,-1701,854,2022-07-06 10.59.56.000000 PM,1933548,1,0.0,0.0,0.0,0.0,0.0,0.0
2022-07-06 17:29:57.045808,780,-1594,-1701,854,2022-07-06 10.59.56.000000 PM,1933558,1,0.0,0.0,0.0,0.0,0.0,0.0
2022-07-06 17:29:57.046800,780,-1594,-1701,854,2022-07-06 10.59.56.000000 PM,1933568,1,0.0,0.0,0.0,0.0,0.0,0.0
2022-07-06 17:29:57.046800,780,-1594,-1701,854,2022-07-06 10.59.56.000000 PM,1933578,1,0.0,0.0,0.0,0.0,0.0,0.0
2022-07-06 17:29:57.082798,780,-1594,-1701,854,2022-07-06 10.59.56.000000 PM,1933588,1,0.0,0.0,0.0,0.0,0.0,0.0
2022-07-06 17:29:57.083798,780,-1594,-1701,854,2022-07-06 10.59.56.000000 PM,1933598,1,0.0,0.0,0.0,0.0,0.0,0.0
2022-07-06 17:29:57.084800,780,-1594,-1701,854,2022-07-06 10.59.56.000000 PM,1933608,1,0.0,0.0,0.0,0.0,0.0,0.0
2022-07-06 17:29:57.084800,780,-1594,-1701,854,2022-07-06 10.59.56.000000 PM,1933618,1,0.0,0.0,0.0,0.0,0.0,0.0
2022-07-06 17:29:57.119965,780,-1594,-1701,854,2022-07-06 10.59.56.000000 PM,1933628,1,0.0,0.0,0.0,0.0,0.0,0.0
2022-07-06 17:29:57.120933,780,-1594,-1701,854,2022-07-06 10.59.56.000000 PM,1933638,1,0.0,0.0,0.0,0.0,0.0,0.0
2022-07-06 17:29:57.121941,780,-1594,-1701,854,2022-07-06 10.59.56.000000 PM,1933648,1,0.0,0.0,0.0,0.0,0.0,0.0
2022-07-06 17:29:57.121941,780,-1594,-1701,854,2022-07-06 10.59.56.000000 PM,1933658,1,0.0,0.0,0.0,0.0,0.0,0.0
2022-07-06 17:29:57.167337,780,-1594,-1701,854,2022-07-06 10.59.56.000000 PM,1933669,1,0.0,0.0,0.0,0.0,0.0,0.0
2022-07-06 17:29:57.168339,780,-1594,-1701,854,2022-07-06 10.59.56.000000 PM,1933679,1,0.0,0.0,0.0,0.0,0.0,0.0
2022-07-06 17:29:57.168339,780,-1594,-1701,854,2022-07-06 10.59.56.000000 PM,1933689,1,0.0,0.0,0.0,0.0,0.0,0.0
2022-07-06 17:29:57.169338,780,-1594,-1701,854,2022-07-06 10.59.56.000000 PM,1933699,1,0.0,0.0,0.0,0.0,0.0,0.0
2022-07-06 17:29:57.210343,780,-1594,-1701,854,2022-07-06 10.59.56.000000 PM,1933709,1,0.0,0.0,0.0,0.0,0.0,0.0
2022-07-06 17:29:57.210343,780,-1594,-1701,854,2022-07-06 10.59.56.000000 PM,1933719,1,0.0,0.0,0.0,0.0,0.0,0.0
2022-07-06 17:29:57.211361,780,-1594,-1701,854,2022-07-06 10.59.56.000000 PM,1933729,1,0.0,0.0,0.0,0.0,0.0,0.0
2022-07-06 17:29:57.211361,780,-1594,-1701,854,2022-07-06 10.59.56.000000 PM,1933739,1,0.0,0.0,0.0,0.0,0.0,0.0
2022-07-06 17:29:57.235346,780,-1594,-1701,854,2022-07-06 10.59.56.000000 PM,1933749,1,0.0,0.0,0.0,0.0,0.0,0.0
2022-07-06 17:29:57.235346,780,-1594,-1701,854,2022-07-06 10.59.56.000000 PM,1933759,1,0.0,0.0,0.0,0.0,0.0,0.0
2022-07-06 17:29:57.236345,780,-1594,-1701,854,2022-07-06 10.59.56.000000 PM,1933769,1,0.0,0.0,0.0,0.0,0.0,0.0
2022-07-06 17:29:57.236345,780,-1594,-1701,854,2022-07-06 10.59.56.000000 PM,1933779,1,0.0,0.0,0.0,0.0,0.0,0.0
2022-07-06 17:29:57.287342,780,-1594,-1701,854,2022-07-06 10.59.56.000000 PM,1933789,1,0.0,0.0,0.0,0.0,0.0,0.0
2022-07-06 17:29:57.288343,780,-1594,-1701,854,2022-07-06 10.59.56.000000 PM,1933799,1,0.0,0.0,0.0,0.0,0.0,0.0
2022-07-06 17:29:57.288343,780,-1594,-1701,854,2022-07-06 10.59.56.000000 PM,1933809,1,0.0,0.0,0.0,0.0,0.0,0.0
2022-07-06 17:29:57.289345,780,-1594,-1701,854,2022-07-06 10.59.56.000000 PM,1933819,1,0.0,0.0,0.0,0.0,0.0,0.0
2022-07-06 17:29:57.319358,780,-1594,-1701,854,2022-07-06 10.59.56.000000 PM,1933829,1,0.0,0.0,0.0,0.0,0.0,0.0
2022-07-06 17:29:57.319358,780,-1594,-1701,854,2022-07-06 10.59.56.000000 PM,1933839,1,0.0,0.0,0.0,0.0,0.0,0.0
2022-07-06 17:29:57.320345,780,-1594,-1701,854,2022-07-06 10.59.56.000000 PM,1933849,1,0.0,0.0,0.0,0.0,0.0,0.0
2022-07-06 17:29:57.320345,780,-1594,-1701,854,2022-07-06 10.59.56.000000 PM,1933859,1,0.0,0.0,0.0,0.0,0.0,0.0
2022-07-06 17:29:57.371447,780,-1594,-1701,854,2022-07-06 10.59.56.000000 PM,1933869,1,0.0,0.0,0.0,0.0,0.0,0.0
2022-07-06 17:29:57.372345,780,-1594,-1701,854,2022-07-06 10.59.56.000000 PM,1933879,1,0.0,0.0,0.0,0.0,0.0,0.0
2022-07-06 17:29:57.372345,780,-1594,-1701,854,2022-07-06 10.59.56.000000 PM,1933889,1,0.0,0.0,0.0,0.0,0.0,0.0
2022-07-06 17:29:57.373344,780,-1594,-1701,854,2022-07-06 10.59.56.000000 PM,1933899,1,0.0,0.0,0.0,0.0,0.0,0.0
2022-07-06 17:29:57.409032,780,-1594,-1701,854,2022-07-06 10.59.56.000000 PM,1933909,1,0.0,0.0,0.0,0.0,0.0,0.0
2022-07-06 17:29:57.409032,780,-1594,-1701,854,2022-07-06 10.59.56.000000 PM,1933919,1,0.0,0.0,0.0,0.0,0.0,0.0
2022-07-06 17:29:57.410029,780,-1594,-1701,854,2022-07-06 10.59.56.000000 PM,1933929,1,0.0,0.0,0.0,0.0,0.0,0.0
2022-07-06 17:29:57.410029,780,-1594,-1701,854,2022-07-06 10.59.56.000000 PM,1933939,1,0.0,0.0,0.0,0.0,0.0,0.0
2022-07-06 17:29:57.436578,780,-1594,-1701,854,2022-07-06 10.59.56.000000 PM,1933949,1,0.0,0.0,0.0,0.0,0.0,0.0
2022-07-06 17:29:57.436578,780,-1594,-1701,854,2022-07-06 10.59.56.000000 PM,1933959,1,0.0,0.0,0.0,0.0,0.0,0.0
2022-07-06 17:29:57.437610,780,-1594,-1701,854,2022-07-06 10.59.56.000000 PM,1933969,1,0.0,0.0,0.0,0.0,0.0,0.0
2022-07-06 17:29:57.437610,780,-1594,-1701,854,2022-07-06 10.59.56.000000 PM,1933979,1,0.0,0.0,0.0,0.0,0.0,0.0
2022-07-06 17:29:57.480046,780,-1594,-1701,854,2022-07-06 10.59.56.000000 PM,1933989,1,0.0,0.0,0.0,0.0,0.0,0.0
2022-07-06 17:29:57.480046,780,-1594,-1701,854,2022-07-06 10.59.56.000000 PM,1933999,1,0.0,0.0,0.0,0.0,0.0,0.0
2022-07-06 17:29:57.481013,780,-1594,-1701,854,2022-07-06 10.59.56.000000 PM,1934009,1,0.0,0.0,0.0,0.0,0.0,0.0
2022-07-06 17:29:57.481013,780,-1594,-1701,854,2022-07-06 10.59.56.000000 PM,1934019,1,0.0,0.0,0.0,0.0,0.0,0.0
2022-07-06 17:29:57.529124,780,-1594,-1701,854,2022-07-06 10.59.56.000000 PM,1934029,1,0.0,0.0,0.0,0.0,0.0,0.0
2022-07-06 17:29:57.529124,780,-1594,-1701,854,2022-07-06 10.59.56.000000 PM,1934039,1,0.0,0.0,0.0,0.0,0.0,0.0
2022-07-06 17:29:57.530123,780,-1594,-1701,854,2022-07-06 10.59.56.000000 PM,1934049,1,0.0,0.0,0.0,0.0,0.0,0.0
2022-07-06 17:29:57.530123,780,-1594,-1701,854,2022-07-06 10.59.56.000000 PM,1934059,1,0.0,0.0,0.0,0.0,0.0,0.0
2022-07-06 17:29:57.531123,780,-1594,-1701,854,2022-07-06 10.59.56.000000 PM,1934069,1,0.0,0.0,0.0,0.0,0.0,0.0
2022-07-06 17:29:57.590226,780,-1594,-1701,854,2022-07-06 10.59.56.000000 PM,1934079,1,0.0,0.0,0.0,0.0,0.0,0.0
2022-07-06 17:29:57.590966,780,-1594,-1701,854,2022-07-06 10.59.56.000000 PM,1934089,1,0.0,0.0,0.0,0.0,0.0,0.0
2022-07-06 17:29:57.591962,780,-1594,-1701,854,2022-07-06 10.59.56.000000 PM,1934099,1,0.0,0.0,0.0,0.0,0.0,0.0
2022-07-06 17:29:57.591962,780,-1594,-1701,854,2022-07-06 10.59.56.000000 PM,1934109,1,0.0,0.0,0.0,0.0,0.0,0.0
2022-07-06 17:29:57.631241,780,-1594,-1701,854,2022-07-06 10.59.56.000000 PM,1934119,1,0.0,0.0,0.0,0.0,0.0,0.0
2022-07-06 17:29:57.632219,780,-1594,-1701,854,2022-07-06 10.59.56.000000 PM,1934129,1,0.0,0.0,0.0,0.0,0.0,0.0
2022-07-06 17:29:57.632219,780,-1594,-1701,854,2022-07-06 10.59.56.000000 PM,1934139,1,0.0,0.0,0.0,0.0,0.0,0.0
2022-07-06 17:29:57.633228,780,-1594,-1701,854,2022-07-06 10.59.56.000000 PM,1934149,1,0.0,0.0,0.0,0.0,0.0,0.0
2022-07-06 17:29:57.661736,780,-1594,-1701,854,2022-07-06 10.59.56.000000 PM,1934159,1,0.0,0.0,0.0,0.0,0.0,0.0
2022-07-06 17:29:57.662737,780,-1594,-1701,854,2022-07-06 10.59.56.000000 PM,1934169,1,0.0,0.0,0.0,0.0,0.0,0.0
2022-07-06 17:29:57.662737,780,-1594,-1701,854,2022-07-06 10.59.56.000000 PM,1934179,1,0.0,0.0,0.0,0.0,0.0,0.0
2022-07-06 17:29:57.663756,780,-1594,-1701,854,2022-07-06 10.59.56.000000 PM,1934189,1,0.0,0.0,0.0,0.0,0.0,0.0
2022-07-06 17:29:57.698861,780,-1594,-1701,854,2022-07-06 10.59.56.000000 PM,1934199,1,0.0,0.0,0.0,0.0,0.0,0.0
2022-07-06 17:29:57.698861,780,-1594,-1701,854,2022-07-06 10.59.56.000000 PM,1934209,1,0.0,0.0,0.0,0.0,0.0,0.0
2022-07-06 17:29:57.699829,780,-1594,-1701,854,2022-07-06 10.59.56.000000 PM,1934219,1,0.0,0.0,0.0,0.0,0.0,0.0
2022-07-06 17:29:57.700830,780,-1594,-1701,854,2022-07-06 10.59.56.000000 PM,1934229,1,0.0,0.0,0.0,0.0,0.0,0.0
2022-07-06 17:29:57.743854,780,-1594,-1701,854,2022-07-06 10.59.56.000000 PM,1934239,1,0.0,0.0,0.0,0.0,0.0,0.0
2022-07-06 17:29:57.744608,780,-1594,-1701,854,2022-07-06 10.59.56.000000 PM,1934249,1,0.0,0.0,0.0,0.0,0.0,0.0
2022-07-06 17:29:57.745635,780,-1594,-1701,854,2022-07-06 10.59.56.000000 PM,1934259,1,0.0,0.0,0.0,0.0,0.0,0.0
2022-07-06 17:29:57.745635,780,-1594,-1701,854,2022-07-06 10.59.56.000000 PM,1934269,1,0.0,0.0,0.0,0.0,0.0,0.0
2022-07-06 17:29:57.803917,780,-1594,-1701,854,2022-07-06 10.59.56.000000 PM,1934279,1,0.0,0.0,0.0,0.0,0.0,0.0
2022-07-06 17:29:57.804916,780,-1594,-1701,854,2022-07-06 10.59.56.000000 PM,1934289,1,0.0,0.0,0.0,0.0,0.0,0.0
2022-07-06 17:29:57.804916,780,-1594,-1701,854,2022-07-06 10.59.56.000000 PM,1934299,1,0.0,0.0,0.0,0.0,0.0,0.0
2022-07-06 17:29:57.805916,780,-1594,-1701,854,2022-07-06 10.59.57.000000 PM,1934309,1,0.0,0.0,0.0,0.0,0.0,0.0
2022-07-06 17:29:57.809934,780,-1594,-1701,854,2022-07-06 10.59.57.000000 PM,1934319,1,0.0,0.0,0.0,0.0,0.0,0.0
2022-07-06 17:29:57.810918,780,-1594,-1701,854,2022-07-06 10.59.57.000000 PM,1934329,1,0.0,0.0,0.0,0.0,0.0,0.0
2022-07-06 17:29:57.811917,780,-1594,-1701,854,2022-07-06 10.59.57.000000 PM,1934339,1,0.0,0.0,0.0,0.0,0.0,0.0
2022-07-06 17:29:57.811917,780,-1594,-1701,854,2022-07-06 10.59.57.000000 PM,1934349,1,0.0,0.0,0.0,0.0,0.0,0.0
2022-07-06 17:29:57.875278,780,-1594,-1701,854,2022-07-06 10.59.57.000000 PM,1934359,1,0.0,0.0,0.0,0.0,0.0,0.0
2022-07-06 17:29:57.876006,780,-1594,-1701,854,2022-07-06 10.59.57.000000 PM,1934369,1,0.0,0.0,0.0,0.0,0.0,0.0
2022-07-06 17:29:57.877008,780,-1594,-1701,854,2022-07-06 10.59.57.000000 PM,1934379,1,0.0,0.0,0.0,0.0,0.0,0.0
2022-07-06 17:29:57.877008,780,-1594,-1701,854,2022-07-06 10.59.57.000000 PM,1934389,1,0.0,0.0,0.0,0.0,0.0,0.0
2022-07-06 17:29:57.886248,780,-1594,-1701,854,2022-07-06 10.59.57.000000 PM,1934399,1,0.0,0.0,0.0,0.0,0.0,0.0
2022-07-06 17:29:57.887250,780,-1594,-1701,854,2022-07-06 10.59.57.000000 PM,1934409,1,0.0,0.0,0.0,0.0,0.0,0.0
2022-07-06 17:29:57.887250,780,-1594,-1701,854,2022-07-06 10.59.57.000000 PM,1934419,1,0.0,0.0,0.0,0.0,0.0,0.0
2022-07-06 17:29:57.888247,780,-1594,-1701,854,2022-07-06 10.59.57.000000 PM,1934429,1,0.0,0.0,0.0,0.0,0.0,0.0
2022-07-06 17:29:57.945973,780,-1594,-1701,854,2022-07-06 10.59.57.000000 PM,1934439,1,0.0,0.0,0.0,0.0,0.0,0.0
2022-07-06 17:29:57.946984,780,-1594,-1701,854,2022-07-06 10.59.57.000000 PM,1934449,1,0.0,0.0,0.0,0.0,0.0,0.0
2022-07-06 17:29:57.946984,780,-1594,-1701,854,2022-07-06 10.59.57.000000 PM,1934459,1,0.0,0.0,0.0,0.0,0.0,0.0
2022-07-06 17:29:57.947982,780,-1594,-1701,854,2022-07-06 10.59.57.000000 PM,1934469,1,0.0,0.0,0.0,0.0,0.0,0.0
2022-07-06 17:29:57.980179,780,-1594,-1701,854,2022-07-06 10.59.57.000000 PM,1934479,1,0.0,0.0,0.0,0.0,0.0,0.0
2022-07-06 17:29:57.981181,780,-1594,-1701,854,2022-07-06 10.59.57.000000 PM,1934489,1,0.0,0.0,0.0,0.0,0.0,0.0
2022-07-06 17:29:57.981181,780,-1594,-1701,854,2022-07-06 10.59.57.000000 PM,1934500,1,0.0,0.0,0.0,0.0,0.0,0.0
2022-07-06 17:29:57.982180,780,-1594,-1701,854,2022-07-06 10.59.57.000000 PM,1934510,1,0.0,0.0,0.0,0.0,0.0,0.0
2022-07-06 17:29:58.013267,780,-1594,-1701,854,2022-07-06 10.59.57.000000 PM,1934520,1,0.0,0.0,0.0,0.0,0.0,0.0
2022-07-06 17:29:58.014267,780,-1594,-1701,854,2022-07-06 10.59.57.000000 PM,1934530,1,0.0,0.0,0.0,0.0,0.0,0.0
2022-07-06 17:29:58.014267,780,-1594,-1701,854,2022-07-06 10.59.57.000000 PM,1934540,1,0.0,0.0,0.0,0.0,0.0,0.0
2022-07-06 17:29:58.015232,780,-1594,-1701,854,2022-07-06 10.59.57.000000 PM,1934550,1,0.0,0.0,0.0,0.0,0.0,0.0
2022-07-06 17:29:58.066060,780,-1594,-1701,854,2022-07-06 10.59.57.000000 PM,1934560,1,0.0,0.0,0.0,0.0,0.0,0.0
2022-07-06 17:29:58.066864,780,-1594,-1701,854,2022-07-06 10.59.57.000000 PM,1934570,1,0.0,0.0,0.0,0.0,0.0,0.0
2022-07-06 17:29:58.067865,780,-1594,-1701,854,2022-07-06 10.59.57.000000 PM,1934580,1,0.0,0.0,0.0,0.0,0.0,0.0
2022-07-06 17:29:58.067865,780,-1594,-1701,854,2022-07-06 10.59.57.000000 PM,1934590,1,0.0,0.0,0.0,0.0,0.0,0.0
2022-07-06 17:29:58.118784,780,-1594,-1701,854,2022-07-06 10.59.57.000000 PM,1934600,1,0.0,0.0,0.0,0.0,0.0,0.0
2022-07-06 17:29:58.119786,780,-1594,-1701,854,2022-07-06 10.59.57.000000 PM,1934610,1,0.0,0.0,0.0,0.0,0.0,0.0
2022-07-06 17:29:58.120785,780,-1594,-1701,854,2022-07-06 10.59.57.000000 PM,1934620,1,0.0,0.0,0.0,0.0,0.0,0.0
2022-07-06 17:29:58.120785,780,-1594,-1701,854,2022-07-06 10.59.57.000000 PM,1934630,1,0.0,0.0,0.0,0.0,0.0,0.0
2022-07-06 17:29:58.156190,780,-1594,-1701,854,2022-07-06 10.59.57.000000 PM,1934640,1,0.0,0.0,0.0,0.0,0.0,0.0
2022-07-06 17:29:58.156190,780,-1594,-1701,854,2022-07-06 10.59.57.000000 PM,1934650,1,0.0,0.0,0.0,0.0,0.0,0.0
2022-07-06 17:29:58.157199,780,-1594,-1701,854,2022-07-06 10.59.57.000000 PM,1934660,1,0.0,0.0,0.0,0.0,0.0,0.0
2022-07-06 17:29:58.157199,780,-1594,-1701,854,2022-07-06 10.59.57.000000 PM,1934670,1,0.0,0.0,0.0,0.0,0.0,0.0
2022-07-06 17:29:58.171476,780,-1594,-1701,854,2022-07-06 10.59.57.000000 PM,1934680,1,0.0,0.0,0.0,0.0,0.0,0.0
2022-07-06 17:29:58.172233,780,-1594,-1701,854,2022-07-06 10.59.57.000000 PM,1934690,1,0.0,0.0,0.0,0.0,0.0,0.0
2022-07-06 17:29:58.172233,780,-1594,-1701,854,2022-07-06 10.59.57.000000 PM,1934700,1,0.0,0.0,0.0,0.0,0.0,0.0
2022-07-06 17:29:58.173206,780,-1594,-1701,854,2022-07-06 10.59.57.000000 PM,1934710,1,0.0,0.0,0.0,0.0,0.0,0.0
2022-07-06 17:29:58.238549,780,-1594,-1701,854,2022-07-06 10.59.57.000000 PM,1934720,1,0.0,0.0,0.0,0.0,0.0,0.0
2022-07-06 17:29:58.239593,780,-1594,-1701,854,2022-07-06 10.59.57.000000 PM,1934730,1,0.0,0.0,0.0,0.0,0.0,0.0
2022-07-06 17:29:58.239593,780,-1594,-1701,854,2022-07-06 10.59.57.000000 PM,1934740,1,0.0,0.0,0.0,0.0,0.0,0.0
2022-07-06 17:29:58.240561,780,-1594,-1701,854,2022-07-06 10.59.57.000000 PM,1934750,1,0.0,0.0,0.0,0.0,0.0,0.0
2022-07-06 17:29:58.306726,780,-1594,-1701,854,2022-07-06 10.59.57.000000 PM,1934760,1,0.0,0.0,0.0,0.0,0.0,0.0
2022-07-06 17:29:58.306726,780,-1594,-1701,854,2022-07-06 10.59.57.000000 PM,1934770,1,0.0,0.0,0.0,0.0,0.0,0.0
2022-07-06 17:29:58.307738,780,-1594,-1701,854,2022-07-06 10.59.57.000000 PM,1934780,1,0.0,0.0,0.0,0.0,0.0,0.0
2022-07-06 17:29:58.307738,780,-1594,-1701,854,2022-07-06 10.59.57.000000 PM,1934790,1,0.0,0.0,0.0,0.0,0.0,0.0
2022-07-06 17:29:58.312107,780,-1594,-1701,854,2022-07-06 10.59.57.000000 PM,1934800,1,0.0,0.0,0.0,0.0,0.0,0.0
2022-07-06 17:29:58.313001,780,-1594,-1701,854,2022-07-06 10.59.57.000000 PM,1934810,1,0.0,0.0,0.0,0.0,0.0,0.0
2022-07-06 17:29:58.313001,780,-1594,-1701,854,2022-07-06 10.59.57.000000 PM,1934820,1,0.0,0.0,0.0,0.0,0.0,0.0
2022-07-06 17:29:58.314000,780,-1594,-1701,854,2022-07-06 10.59.57.000000 PM,1934830,1,0.0,0.0,0.0,0.0,0.0,0.0
2022-07-06 17:29:58.365683,780,-1594,-1701,854,2022-07-06 10.59.57.000000 PM,1934840,1,0.0,0.0,0.0,0.0,0.0,0.0
2022-07-06 17:29:58.366696,780,-1594,-1701,854,2022-07-06 10.59.57.000000 PM,1934850,1,0.0,0.0,0.0,0.0,0.0,0.0
2022-07-06 17:29:58.367696,780,-1594,-1700,854,2022-07-06 10.59.57.000000 PM,1934860,1,0.0,0.0,0.0,0.0,0.0,0.0
2022-07-06 17:29:58.367696,780,-1594,-1700,854,2022-07-06 10.59.57.000000 PM,1934870,1,0.0,0.0,0.0,0.0,0.0,0.0
2022-07-06 17:29:58.372422,780,-1594,-1700,854,2022-07-06 10.59.57.000000 PM,1934880,1,0.0,0.0,0.0,0.0,0.0,0.0
2022-07-06 17:29:58.372422,780,-1594,-1700,854,2022-07-06 10.59.57.000000 PM,1934890,1,0.0,0.0,0.0,0.0,0.0,0.0
2022-07-06 17:29:58.373389,780,-1594,-1700,854,2022-07-06 10.59.57.000000 PM,1934900,1,0.0,0.0,0.0,0.0,0.0,0.0
2022-07-06 17:29:58.373389,780,-1594,-1700,854,2022-07-06 10.59.57.000000 PM,1934910,1,0.0,0.0,0.0,0.0,0.0,0.0
2022-07-06 17:29:58.441140,780,-1594,-1700,854,2022-07-06 10.59.57.000000 PM,1934920,1,0.0,0.0,0.0,0.0,0.0,0.0
2022-07-06 17:29:58.441873,780,-1594,-1700,854,2022-07-06 10.59.57.000000 PM,1934930,1,0.0,0.0,0.0,0.0,0.0,0.0
2022-07-06 17:29:58.442858,780,-1594,-1700,854,2022-07-06 10.59.57.000000 PM,1934940,1,0.0,0.0,0.0,0.0,0.0,0.0
2022-07-06 17:29:58.442858,780,-1594,-1700,854,2022-07-06 10.59.57.000000 PM,1934950,1,0.0,0.0,0.0,0.0,0.0,0.0
2022-07-06 17:29:58.471229,780,-1594,-1700,854,2022-07-06 10.59.57.000000 PM,1934960,1,0.0,0.0,0.0,0.0,0.0,0.0
2022-07-06 17:29:58.472121,780,-1594,-1700,854,2022-07-06 10.59.57.000000 PM,1934970,1,0.0,0.0,0.0,0.0,0.0,0.0
2022-07-06 17:29:58.472121,780,-1594,-1700,854,2022-07-06 10.59.57.000000 PM,1934980,1,0.0,0.0,0.0,0.0,0.0,0.0
2022-07-06 17:29:58.473134,780,-1594,-1700,854,2022-07-06 10.59.57.000000 PM,1934990,1,0.0,0.0,0.0,0.0,0.0,0.0
2022-07-06 17:29:58.500168,780,-1594,-1700,854,2022-07-06 10.59.57.000000 PM,1935000,1,0.0,0.0,0.0,0.0,0.0,0.0
2022-07-06 17:29:58.501169,780,-1594,-1700,854,2022-07-06 10.59.57.000000 PM,1935010,1,0.0,0.0,0.0,0.0,0.0,0.0
2022-07-06 17:29:58.501169,780,-1594,-1700,854,2022-07-06 10.59.57.000000 PM,1935020,1,0.0,0.0,0.0,0.0,0.0,0.0
2022-07-06 17:29:58.501169,780,-1594,-1700,854,2022-07-06 10.59.57.000000 PM,1935030,1,0.0,0.0,0.0,0.0,0.0,0.0
2022-07-06 17:29:58.548639,780,-1594,-1700,854,2022-07-06 10.59.57.000000 PM,1935040,1,0.0,0.0,0.0,0.0,0.0,0.0
2022-07-06 17:29:58.549630,780,-1594,-1700,854,2022-07-06 10.59.57.000000 PM,1935050,1,0.0,0.0,0.0,0.0,0.0,0.0
2022-07-06 17:29:58.549630,780,-1594,-1700,854,2022-07-06 10.59.57.000000 PM,1935060,1,0.0,0.0,0.0,0.0,0.0,0.0
2022-07-06 17:29:58.550630,780,-1594,-1700,854,2022-07-06 10.59.57.000000 PM,1935070,1,0.0,0.0,0.0,0.0,0.0,0.0
2022-07-06 17:29:58.623861,780,-1594,-1700,854,2022-07-06 10.59.57.000000 PM,1935080,1,0.0,0.0,0.0,0.0,0.0,0.0
2022-07-06 17:29:58.623861,780,-1594,-1700,854,2022-07-06 10.59.57.000000 PM,1935090,1,0.0,0.0,0.0,0.0,0.0,0.0
2022-07-06 17:29:58.624871,780,-1594,-1700,854,2022-07-06 10.59.57.000000 PM,1935100,1,0.0,0.0,0.0,0.0,0.0,0.0
2022-07-06 17:29:58.624871,780,-1594,-1700,854,2022-07-06 10.59.57.000000 PM,1935110,1,0.0,0.0,0.0,0.0,0.0,0.0
2022-07-06 17:29:58.635973,780,-1594,-1700,854,2022-07-06 10.59.57.000000 PM,1935120,1,0.0,0.0,0.0,0.0,0.0,0.0
2022-07-06 17:29:58.636909,780,-1594,-1700,854,2022-07-06 10.59.57.000000 PM,1935130,1,0.0,0.0,0.0,0.0,0.0,0.0
2022-07-06 17:29:58.636909,780,-1594,-1700,854,2022-07-06 10.59.57.000000 PM,1935140,1,0.0,0.0,0.0,0.0,0.0,0.0
2022-07-06 17:29:58.637872,780,-1594,-1700,854,2022-07-06 10.59.57.000000 PM,1935150,1,0.0,0.0,0.0,0.0,0.0,0.0
2022-07-06 17:29:58.670260,780,-1594,-1700,854,2022-07-06 10.59.57.000000 PM,1935160,1,0.0,0.0,0.0,0.0,0.0,0.0
2022-07-06 17:29:58.671210,780,-1594,-1700,854,2022-07-06 10.59.57.000000 PM,1935170,1,0.0,0.0,0.0,0.0,0.0,0.0
2022-07-06 17:29:58.671210,780,-1594,-1700,854,2022-07-06 10.59.57.000000 PM,1935180,1,0.0,0.0,0.0,0.0,0.0,0.0
2022-07-06 17:29:58.672212,780,-1594,-1700,854,2022-07-06 10.59.57.000000 PM,1935190,1,0.0,0.0,0.0,0.0,0.0,0.0
2022-07-06 17:29:58.703897,780,-1594,-1700,854,2022-07-06 10.59.57.000000 PM,1935200,1,0.0,0.0,0.0,0.0,0.0,0.0
2022-07-06 17:29:58.704865,780,-1594,-1700,854,2022-07-06 10.59.57.000000 PM,1935210,1,0.0,0.0,0.0,0.0,0.0,0.0
2022-07-06 17:29:58.704865,780,-1594,-1700,854,2022-07-06 10.59.57.000000 PM,1935220,1,0.0,0.0,0.0,0.0,0.0,0.0
2022-07-06 17:29:58.705859,780,-1594,-1700,854,2022-07-06 10.59.57.000000 PM,1935230,1,0.0,0.0,0.0,0.0,0.0,0.0
2022-07-06 17:29:58.705859,780,-1594,-1700,854,2022-07-06 10.59.57.000000 PM,1935240,1,0.0,0.0,0.0,0.0,0.0,0.0
2022-07-06 17:29:58.771528,780,-1594,-1700,854,2022-07-06 10.59.57.000000 PM,1935250,1,0.0,0.0,0.0,0.0,0.0,0.0
2022-07-06 17:29:58.771528,780,-1594,-1700,854,2022-07-06 10.59.57.000000 PM,1935260,1,0.0,0.0,0.0,0.0,0.0,0.0
2022-07-06 17:29:58.772528,780,-1594,-1700,854,2022-07-06 10.59.57.000000 PM,1935270,1,0.0,0.0,0.0,0.0,0.0,0.0
2022-07-06 17:29:58.772528,780,-1594,-1700,854,2022-07-06 10.59.57.000000 PM,1935280,1,0.0,0.0,0.0,0.0,0.0,0.0
2022-07-06 17:29:58.803795,780,-1594,-1700,854,2022-07-06 10.59.57.000000 PM,1935290,1,0.0,0.0,0.0,0.0,0.0,0.0
2022-07-06 17:29:58.803795,780,-1594,-1700,854,2022-07-06 10.59.57.000000 PM,1935300,1,0.0,0.0,0.0,0.0,0.0,0.0
2022-07-06 17:29:58.804803,780,-1594,-1700,854,2022-07-06 10.59.58.000000 PM,1935310,1,0.0,0.0,0.0,0.0,0.0,0.0
2022-07-06 17:29:58.804803,780,-1594,-1700,854,2022-07-06 10.59.58.000000 PM,1935320,1,0.0,0.0,0.0,0.0,0.0,0.0
2022-07-06 17:29:58.823362,780,-1594,-1700,854,2022-07-06 10.59.58.000000 PM,1935330,1,0.0,0.0,0.0,0.0,0.0,0.0
2022-07-06 17:29:58.824372,780,-1594,-1700,854,2022-07-06 10.59.58.000000 PM,1935341,1,0.0,0.0,0.0,0.0,0.0,0.0
2022-07-06 17:29:58.824372,780,-1594,-1700,854,2022-07-06 10.59.58.000000 PM,1935351,1,0.0,0.0,0.0,0.0,0.0,0.0
2022-07-06 17:29:58.825398,780,-1594,-1700,854,2022-07-06 10.59.58.000000 PM,1935361,1,0.0,0.0,0.0,0.0,0.0,0.0
2022-07-06 17:29:58.892099,780,-1594,-1700,854,2022-07-06 10.59.58.000000 PM,1935371,1,0.0,0.0,0.0,0.0,0.0,0.0
2022-07-06 17:29:58.892826,780,-1594,-1700,854,2022-07-06 10.59.58.000000 PM,1935381,1,0.0,0.0,0.0,0.0,0.0,0.0
2022-07-06 17:29:58.893833,780,-1594,-1700,854,2022-07-06 10.59.58.000000 PM,1935391,1,0.0,0.0,0.0,0.0,0.0,0.0
2022-07-06 17:29:58.893833,780,-1594,-1700,854,2022-07-06 10.59.58.000000 PM,1935401,1,0.0,0.0,0.0,0.0,0.0,0.0
2022-07-06 17:29:58.897827,780,-1594,-1700,854,2022-07-06 10.59.58.000000 PM,1935411,1,0.0,0.0,0.0,0.0,0.0,0.0
2022-07-06 17:29:58.897827,780,-1594,-1700,854,2022-07-06 10.59.58.000000 PM,1935421,1,0.0,0.0,0.0,0.0,0.0,0.0
2022-07-06 17:29:58.897827,780,-1594,-1700,854,2022-07-06 10.59.58.000000 PM,1935431,1,0.0,0.0,0.0,0.0,0.0,0.0
2022-07-06 17:29:58.898825,780,-1594,-1700,854,2022-07-06 10.59.58.000000 PM,1935441,1,0.0,0.0,0.0,0.0,0.0,0.0
2022-07-06 17:29:58.977268,780,-1594,-1700,854,2022-07-06 10.59.58.000000 PM,1935451,1,0.0,0.0,0.0,0.0,0.0,0.0
2022-07-06 17:29:58.977268,780,-1594,-1700,854,2022-07-06 10.59.58.000000 PM,1935461,1,0.0,0.0,0.0,0.0,0.0,0.0
2022-07-06 17:29:58.990331,780,-1594,-1700,854,2022-07-06 10.59.58.000000 PM,1935471,1,0.0,0.0,0.0,0.0,0.0,0.0
2022-07-06 17:29:58.990331,780,-1594,-1700,854,2022-07-06 10.59.58.000000 PM,1935481,1,0.0,0.0,0.0,0.0,0.0,0.0
2022-07-06 17:29:58.994867,780,-1594,-1700,854,2022-07-06 10.59.58.000000 PM,1935491,1,0.0,0.0,0.0,0.0,0.0,0.0
2022-07-06 17:29:58.994867,780,-1594,-1700,854,2022-07-06 10.59.58.000000 PM,1935501,1,0.0,0.0,0.0,0.0,0.0,0.0
2022-07-06 17:29:58.995894,780,-1594,-1700,854,2022-07-06 10.59.58.000000 PM,1935511,1,0.0,0.0,0.0,0.0,0.0,0.0
2022-07-06 17:29:58.996870,780,-1594,-1700,854,2022-07-06 10.59.58.000000 PM,1935521,1,0.0,0.0,0.0,0.0,0.0,0.0
2022-07-06 17:29:59.029217,780,-1594,-1700,854,2022-07-06 10.59.58.000000 PM,1935531,1,0.0,0.0,0.0,0.0,0.0,0.0
2022-07-06 17:29:59.029217,780,-1594,-1700,854,2022-07-06 10.59.58.000000 PM,1935541,1,0.0,0.0,0.0,0.0,0.0,0.0
2022-07-06 17:29:59.030218,780,-1594,-1700,854,2022-07-06 10.59.58.000000 PM,1935551,1,0.0,0.0,0.0,0.0,0.0,0.0
2022-07-06 17:29:59.030218,780,-1594,-1700,854,2022-07-06 10.59.58.000000 PM,1935561,1,0.0,0.0,0.0,0.0,0.0,0.0
2022-07-06 17:29:59.078985,780,-1594,-1700,854,2022-07-06 10.59.58.000000 PM,1935571,1,0.0,0.0,0.0,0.0,0.0,0.0
2022-07-06 17:29:59.079982,780,-1594,-1700,854,2022-07-06 10.59.58.000000 PM,1935581,1,0.0,0.0,0.0,0.0,0.0,0.0
2022-07-06 17:29:59.079982,780,-1594,-1700,854,2022-07-06 10.59.58.000000 PM,1935591,1,0.0,0.0,0.0,0.0,0.0,0.0
2022-07-06 17:29:59.080984,780,-1594,-1700,854,2022-07-06 10.59.58.000000 PM,1935601,1,0.0,0.0,0.0,0.0,0.0,0.0
2022-07-06 17:29:59.129599,780,-1594,-1700,854,2022-07-06 10.59.58.000000 PM,1935611,1,0.0,0.0,0.0,0.0,0.0,0.0
2022-07-06 17:29:59.130565,780,-1594,-1700,854,2022-07-06 10.59.58.000000 PM,1935621,1,0.0,0.0,0.0,0.0,0.0,0.0
2022-07-06 17:29:59.130565,780,-1594,-1700,854,2022-07-06 10.59.58.000000 PM,1935631,1,0.0,0.0,0.0,0.0,0.0,0.0
2022-07-06 17:29:59.131565,780,-1594,-1700,854,2022-07-06 10.59.58.000000 PM,1935641,1,0.0,0.0,0.0,0.0,0.0,0.0
2022-07-06 17:29:59.148579,780,-1594,-1700,854,2022-07-06 10.59.58.000000 PM,1935651,1,0.0,0.0,0.0,0.0,0.0,0.0
2022-07-06 17:29:59.149578,780,-1594,-1700,854,2022-07-06 10.59.58.000000 PM,1935661,1,0.0,0.0,0.0,0.0,0.0,0.0
2022-07-06 17:29:59.149578,780,-1594,-1700,854,2022-07-06 10.59.58.000000 PM,1935671,1,0.0,0.0,0.0,0.0,0.0,0.0
2022-07-06 17:29:59.149578,780,-1594,-1700,854,2022-07-06 10.59.58.000000 PM,1935681,1,0.0,0.0,0.0,0.0,0.0,0.0
2022-07-06 17:29:59.183420,780,-1594,-1700,854,2022-07-06 10.59.58.000000 PM,1935691,1,0.0,0.0,0.0,0.0,0.0,0.0
2022-07-06 17:29:59.184389,780,-1594,-1700,854,2022-07-06 10.59.58.000000 PM,1935701,1,0.0,0.0,0.0,0.0,0.0,0.0
2022-07-06 17:29:59.184389,780,-1594,-1700,854,2022-07-06 10.59.58.000000 PM,1935711,1,0.0,0.0,0.0,0.0,0.0,0.0
2022-07-06 17:29:59.185388,780,-1594,-1700,854,2022-07-06 10.59.58.000000 PM,1935721,1,0.0,0.0,0.0,0.0,0.0,0.0
2022-07-06 17:29:59.242534,780,-1594,-1700,854,2022-07-06 10.59.58.000000 PM,1935731,1,0.0,0.0,0.0,0.0,0.0,0.0
2022-07-06 17:29:59.243550,780,-1594,-1700,854,2022-07-06 10.59.58.000000 PM,1935741,1,0.0,0.0,0.0,0.0,0.0,0.0
2022-07-06 17:29:59.243550,780,-1594,-1700,854,2022-07-06 10.59.58.000000 PM,1935751,1,0.0,0.0,0.0,0.0,0.0,0.0
2022-07-06 17:29:59.243550,780,-1594,-1700,854,2022-07-06 10.59.58.000000 PM,1935761,1,0.0,0.0,0.0,0.0,0.0,0.0
2022-07-06 17:29:59.280927,780,-1594,-1700,854,2022-07-06 10.59.58.000000 PM,1935771,1,0.0,0.0,0.0,0.0,0.0,0.0
2022-07-06 17:29:59.281908,780,-1594,-1700,854,2022-07-06 10.59.58.000000 PM,1935781,1,0.0,0.0,0.0,0.0,0.0,0.0
2022-07-06 17:29:59.282897,780,-1594,-1700,854,2022-07-06 10.59.58.000000 PM,1935791,1,0.0,0.0,0.0,0.0,0.0,0.0
2022-07-06 17:29:59.282897,780,-1594,-1700,854,2022-07-06 10.59.58.000000 PM,1935801,1,0.0,0.0,0.0,0.0,0.0,0.0
2022-07-06 17:29:59.303711,780,-1594,-1700,854,2022-07-06 10.59.58.000000 PM,1935811,1,0.0,0.0,0.0,0.0,0.0,0.0
2022-07-06 17:29:59.304715,780,-1594,-1700,854,2022-07-06 10.59.58.000000 PM,1935821,1,0.0,0.0,0.0,0.0,0.0,0.0
2022-07-06 17:29:59.304715,780,-1594,-1700,854,2022-07-06 10.59.58.000000 PM,1935831,1,0.0,0.0,0.0,0.0,0.0,0.0
2022-07-06 17:29:59.305723,780,-1594,-1700,854,2022-07-06 10.59.58.000000 PM,1935841,1,0.0,0.0,0.0,0.0,0.0,0.0
2022-07-06 17:29:59.358420,780,-1594,-1700,854,2022-07-06 10.59.58.000000 PM,1935851,1,0.0,0.0,0.0,0.0,0.0,0.0
2022-07-06 17:29:59.359139,780,-1594,-1700,854,2022-07-06 10.59.58.000000 PM,1935861,1,0.0,0.0,0.0,0.0,0.0,0.0
2022-07-06 17:29:59.360143,780,-1594,-1700,854,2022-07-06 10.59.58.000000 PM,1935871,1,0.0,0.0,0.0,0.0,0.0,0.0
2022-07-06 17:29:59.360143,780,-1594,-1700,854,2022-07-06 10.59.58.000000 PM,1935881,1,0.0,0.0,0.0,0.0,0.0,0.0
2022-07-06 17:29:59.393598,780,-1594,-1700,854,2022-07-06 10.59.58.000000 PM,1935891,1,0.0,0.0,0.0,0.0,0.0,0.0
2022-07-06 17:29:59.394209,780,-1594,-1700,854,2022-07-06 10.59.58.000000 PM,1935901,1,0.0,0.0,0.0,0.0,0.0,0.0
2022-07-06 17:29:59.394209,780,-1594,-1700,854,2022-07-06 10.59.58.000000 PM,1935911,1,0.0,0.0,0.0,0.0,0.0,0.0
2022-07-06 17:29:59.395219,780,-1594,-1700,854,2022-07-06 10.59.58.000000 PM,1935921,1,0.0,0.0,0.0,0.0,0.0,0.0
2022-07-06 17:29:59.431366,780,-1594,-1700,854,2022-07-06 10.59.58.000000 PM,1935931,1,0.0,0.0,0.0,0.0,0.0,0.0
2022-07-06 17:29:59.431366,780,-1594,-1700,854,2022-07-06 10.59.58.000000 PM,1935941,1,0.0,0.0,0.0,0.0,0.0,0.0
2022-07-06 17:29:59.432368,780,-1594,-1700,854,2022-07-06 10.59.58.000000 PM,1935951,1,0.0,0.0,0.0,0.0,0.0,0.0
2022-07-06 17:29:59.432368,780,-1594,-1700,854,2022-07-06 10.59.58.000000 PM,1935961,1,0.0,0.0,0.0,0.0,0.0,0.0
2022-07-06 17:29:59.471681,780,-1594,-1700,854,2022-07-06 10.59.58.000000 PM,1935971,1,0.0,0.0,0.0,0.0,0.0,0.0
2022-07-06 17:29:59.471681,780,-1594,-1700,854,2022-07-06 10.59.58.000000 PM,1935981,1,0.0,0.0,0.0,0.0,0.0,0.0
2022-07-06 17:29:59.472692,780,-1594,-1700,854,2022-07-06 10.59.58.000000 PM,1935991,1,0.0,0.0,0.0,0.0,0.0,0.0
2022-07-06 17:29:59.472692,781,-1593,-1700,855,2022-07-06 10.59.58.000000 PM,1936001,1,0.0,0.0,0.0,0.0,0.0,0.0
2022-07-06 17:29:59.506405,781,-1593,-1700,855,2022-07-06 10.59.58.000000 PM,1936011,1,0.0,0.0,0.0,0.0,0.0,0.0
2022-07-06 17:29:59.506405,781,-1593,-1700,855,2022-07-06 10.59.58.000000 PM,1936021,1,0.0,0.0,0.0,0.0,0.0,0.0
2022-07-06 17:29:59.507407,781,-1593,-1700,855,2022-07-06 10.59.58.000000 PM,1936031,1,0.0,0.0,0.0,0.0,0.0,0.0
2022-07-06 17:29:59.508405,781,-1593,-1700,855,2022-07-06 10.59.58.000000 PM,1936041,1,0.0,0.0,0.0,0.0,0.0,0.0
2022-07-06 17:29:59.565766,781,-1593,-1700,855,2022-07-06 10.59.58.000000 PM,1936051,1,0.0,0.0,0.0,0.0,0.0,0.0
2022-07-06 17:29:59.566766,781,-1593,-1699,855,2022-07-06 10.59.58.000000 PM,1936061,1,0.0,0.0,0.0,0.0,0.0,0.0
2022-07-06 17:29:59.566766,781,-1593,-1699,855,2022-07-06 10.59.58.000000 PM,1936071,1,0.0,0.0,0.0,0.0,0.0,0.0
2022-07-06 17:29:59.567790,781,-1593,-1699,855,2022-07-06 10.59.58.000000 PM,1936081,1,0.0,0.0,0.0,0.0,0.0,0.0
2022-07-06 17:29:59.594880,781,-1593,-1699,855,2022-07-06 10.59.58.000000 PM,1936091,1,0.0,0.0,0.0,0.0,0.0,0.0
2022-07-06 17:29:59.595878,781,-1593,-1699,855,2022-07-06 10.59.58.000000 PM,1936101,1,0.0,0.0,0.0,0.0,0.0,0.0
2022-07-06 17:29:59.595878,781,-1593,-1699,855,2022-07-06 10.59.58.000000 PM,1936111,1,0.0,0.0,0.0,0.0,0.0,0.0
2022-07-06 17:29:59.596880,781,-1593,-1699,855,2022-07-06 10.59.58.000000 PM,1936121,1,0.0,0.0,0.0,0.0,0.0,0.0
2022-07-06 17:29:59.645673,781,-1593,-1699,855,2022-07-06 10.59.58.000000 PM,1936131,1,0.0,0.0,0.0,0.0,0.0,0.0
2022-07-06 17:29:59.645673,781,-1593,-1699,855,2022-07-06 10.59.58.000000 PM,1936141,1,0.0,0.0,0.0,0.0,0.0,0.0
2022-07-06 17:29:59.646650,781,-1593,-1699,855,2022-07-06 10.59.58.000000 PM,1936151,1,0.0,0.0,0.0,0.0,0.0,0.0
2022-07-06 17:29:59.646650,781,-1593,-1699,855,2022-07-06 10.59.58.000000 PM,1936161,1,0.0,0.0,0.0,0.0,0.0,0.0
2022-07-06 17:29:59.669936,781,-1593,-1699,855,2022-07-06 10.59.58.000000 PM,1936172,1,0.0,0.0,0.0,0.0,0.0,0.0
2022-07-06 17:29:59.669936,781,-1593,-1699,855,2022-07-06 10.59.58.000000 PM,1936182,1,0.0,0.0,0.0,0.0,0.0,0.0
2022-07-06 17:29:59.670941,781,-1593,-1699,855,2022-07-06 10.59.58.000000 PM,1936192,1,0.0,0.0,0.0,0.0,0.0,0.0
2022-07-06 17:29:59.670941,781,-1593,-1699,855,2022-07-06 10.59.58.000000 PM,1936202,1,0.0,0.0,0.0,0.0,0.0,0.0
2022-07-06 17:29:59.731295,781,-1593,-1699,855,2022-07-06 10.59.58.000000 PM,1936212,1,0.0,0.0,0.0,0.0,0.0,0.0
2022-07-06 17:29:59.731295,781,-1593,-1699,855,2022-07-06 10.59.58.000000 PM,1936222,1,0.0,0.0,0.0,0.0,0.0,0.0
2022-07-06 17:29:59.732295,781,-1593,-1699,855,2022-07-06 10.59.58.000000 PM,1936232,1,0.0,0.0,0.0,0.0,0.0,0.0
2022-07-06 17:29:59.732295,781,-1593,-1699,855,2022-07-06 10.59.58.000000 PM,1936242,1,0.0,0.0,0.0,0.0,0.0,0.0
2022-07-06 17:29:59.737294,781,-1593,-1699,855,2022-07-06 10.59.58.000000 PM,1936252,1,0.0,0.0,0.0,0.0,0.0,0.0
2022-07-06 17:29:59.737294,781,-1593,-1699,855,2022-07-06 10.59.58.000000 PM,1936262,1,0.0,0.0,0.0,0.0,0.0,0.0
2022-07-06 17:29:59.738298,781,-1593,-1699,855,2022-07-06 10.59.58.000000 PM,1936272,1,0.0,0.0,0.0,0.0,0.0,0.0
2022-07-06 17:29:59.738298,781,-1593,-1699,855,2022-07-06 10.59.58.000000 PM,1936282,1,0.0,0.0,0.0,0.0,0.0,0.0
2022-07-06 17:29:59.797430,781,-1593,-1699,855,2022-07-06 10.59.58.000000 PM,1936292,1,0.0,0.0,0.0,0.0,0.0,0.0
2022-07-06 17:29:59.798441,781,-1593,-1699,855,2022-07-06 10.59.58.000000 PM,1936302,1,0.0,0.0,0.0,0.0,0.0,0.0
2022-07-06 17:29:59.798441,781,-1593,-1699,855,2022-07-06 10.59.59.000000 PM,1936312,1,0.0,0.0,0.0,0.0,0.0,0.0
2022-07-06 17:29:59.799430,781,-1593,-1699,855,2022-07-06 10.59.59.000000 PM,1936322,1,0.0,0.0,0.0,0.0,0.0,0.0
2022-07-06 17:29:59.838461,781,-1593,-1699,855,2022-07-06 10.59.59.000000 PM,1936332,1,0.0,0.0,0.0,0.0,0.0,0.0
2022-07-06 17:29:59.839432,781,-1593,-1699,855,2022-07-06 10.59.59.000000 PM,1936342,1,0.0,0.0,0.0,0.0,0.0,0.0
2022-07-06 17:29:59.839432,781,-1593,-1699,855,2022-07-06 10.59.59.000000 PM,1936352,1,0.0,0.0,0.0,0.0,0.0,0.0
2022-07-06 17:29:59.840430,781,-1593,-1699,855,2022-07-06 10.59.59.000000 PM,1936362,1,0.0,0.0,0.0,0.0,0.0,0.0
2022-07-06 17:29:59.840430,781,-1593,-1699,855,2022-07-06 10.59.59.000000 PM,1936372,1,0.0,0.0,0.0,0.0,0.0,0.0
2022-07-06 17:29:59.888556,781,-1593,-1699,855,2022-07-06 10.59.59.000000 PM,1936382,1,0.0,0.0,0.0,0.0,0.0,0.0
2022-07-06 17:29:59.889432,781,-1593,-1699,855,2022-07-06 10.59.59.000000 PM,1936392,1,0.0,0.0,0.0,0.0,0.0,0.0
2022-07-06 17:29:59.889432,781,-1593,-1699,855,2022-07-06 10.59.59.000000 PM,1936402,1,0.0,0.0,0.0,0.0,0.0,0.0
2022-07-06 17:29:59.890430,781,-1593,-1699,855,2022-07-06 10.59.59.000000 PM,1936412,1,0.0,0.0,0.0,0.0,0.0,0.0
2022-07-06 17:29:59.918430,781,-1593,-1699,855,2022-07-06 10.59.59.000000 PM,1936422,1,0.0,0.0,0.0,0.0,0.0,0.0
2022-07-06 17:29:59.919432,781,-1593,-1699,855,2022-07-06 10.59.59.000000 PM,1936432,1,0.0,0.0,0.0,0.0,0.0,0.0
2022-07-06 17:29:59.919432,781,-1593,-1699,855,2022-07-06 10.59.59.000000 PM,1936442,1,0.0,0.0,0.0,0.0,0.0,0.0
2022-07-06 17:29:59.920431,781,-1593,-1699,855,2022-07-06 10.59.59.000000 PM,1936452,1,0.0,0.0,0.0,0.0,0.0,0.0
2022-07-06 17:29:59.963279,781,-1593,-1699,855,2022-07-06 10.59.59.000000 PM,1936462,1,0.0,0.0,0.0,0.0,0.0,0.0
2022-07-06 17:29:59.964283,781,-1593,-1699,855,2022-07-06 10.59.59.000000 PM,1936472,1,0.0,0.0,0.0,0.0,0.0,0.0
2022-07-06 17:29:59.964283,781,-1593,-1699,855,2022-07-06 10.59.59.000000 PM,1936482,1,0.0,0.0,0.0,0.0,0.0,0.0
2022-07-06 17:29:59.965279,781,-1593,-1699,855,2022-07-06 10.59.59.000000 PM,1936492,1,0.0,0.0,0.0,0.0,0.0,0.0
2022-07-06 17:29:59.992291,781,-1593,-1699,855,2022-07-06 10.59.59.000000 PM,1936502,1,0.0,0.0,0.0,0.0,0.0,0.0
2022-07-06 17:29:59.993280,781,-1593,-1699,855,2022-07-06 10.59.59.000000 PM,1936512,1,0.0,0.0,0.0,0.0,0.0,0.0
2022-07-06 17:29:59.993280,781,-1593,-1699,855,2022-07-06 10.59.59.000000 PM,1936522,1,0.0,0.0,0.0,0.0,0.0,0.0
2022-07-06 17:29:59.994280,781,-1593,-1699,855,2022-07-06 10.59.59.000000 PM,1936532,1,0.0,0.0,0.0,0.0,0.0,0.0
2022-07-06 17:30:00.039191,781,-1593,-1699,855,2022-07-06 10.59.59.000000 PM,1936542,1,0.0,0.0,0.0,0.0,0.0,0.0
2022-07-06 17:30:00.039191,781,-1593,-1699,855,2022-07-06 10.59.59.000000 PM,1936552,1,0.0,0.0,0.0,0.0,0.0,0.0
2022-07-06 17:30:00.040203,781,-1593,-1699,855,2022-07-06 10.59.59.000000 PM,1936562,1,0.0,0.0,0.0,0.0,0.0,0.0
2022-07-06 17:30:00.040203,781,-1593,-1699,855,2022-07-06 10.59.59.000000 PM,1936572,1,0.0,0.0,0.0,0.0,0.0,0.0
2022-07-06 17:30:00.083977,781,-1593,-1699,855,2022-07-06 10.59.59.000000 PM,1936582,1,0.0,0.0,0.0,0.0,0.0,0.0
2022-07-06 17:30:00.083977,781,-1593,-1699,855,2022-07-06 10.59.59.000000 PM,1936592,1,0.0,0.0,0.0,0.0,0.0,0.0
2022-07-06 17:30:00.084979,781,-1593,-1699,855,2022-07-06 10.59.59.000000 PM,1936602,1,0.0,0.0,0.0,0.0,0.0,0.0
2022-07-06 17:30:00.084979,781,-1593,-1699,855,2022-07-06 10.59.59.000000 PM,1936612,1,0.0,0.0,0.0,0.0,0.0,0.0
2022-07-06 17:30:00.116164,781,-1593,-1699,855,2022-07-06 10.59.59.000000 PM,1936622,1,0.0,0.0,0.0,0.0,0.0,0.0
2022-07-06 17:30:00.116164,781,-1593,-1699,855,2022-07-06 10.59.59.000000 PM,1936632,1,0.0,0.0,0.0,0.0,0.0,0.0
2022-07-06 17:30:00.117156,781,-1593,-1699,855,2022-07-06 10.59.59.000000 PM,1936642,1,0.0,0.0,0.0,0.0,0.0,0.0
2022-07-06 17:30:00.117156,781,-1593,-1699,855,2022-07-06 10.59.59.000000 PM,1936652,1,0.0,0.0,0.0,0.0,0.0,0.0
2022-07-06 17:30:00.181041,781,-1593,-1699,855,2022-07-06 10.59.59.000000 PM,1936662,1,0.0,0.0,0.0,0.0,0.0,0.0
2022-07-06 17:30:00.182023,781,-1593,-1699,855,2022-07-06 10.59.59.000000 PM,1936672,1,0.0,0.0,0.0,0.0,0.0,0.0
2022-07-06 17:30:00.183019,781,-1593,-1699,855,2022-07-06 10.59.59.000000 PM,1936682,1,0.0,0.0,0.0,0.0,0.0,0.0
2022-07-06 17:30:00.183019,781,-1593,-1699,855,2022-07-06 10.59.59.000000 PM,1936692,1,0.0,0.0,0.0,0.0,0.0,0.0
2022-07-06 17:30:00.210111,781,-1593,-1699,855,2022-07-06 10.59.59.000000 PM,1936702,1,0.0,0.0,0.0,0.0,0.0,0.0
2022-07-06 17:30:00.211136,781,-1593,-1699,855,2022-07-06 10.59.59.000000 PM,1936712,1,0.0,0.0,0.0,0.0,0.0,0.0
2022-07-06 17:30:00.211136,781,-1593,-1699,855,2022-07-06 10.59.59.000000 PM,1936722,1,0.0,0.0,0.0,0.0,0.0,0.0
2022-07-06 17:30:00.212131,781,-1593,-1699,855,2022-07-06 10.59.59.000000 PM,1936732,1,0.0,0.0,0.0,0.0,0.0,0.0
2022-07-06 17:30:00.243791,781,-1593,-1699,855,2022-07-06 10.59.59.000000 PM,1936742,1,0.0,0.0,0.0,0.0,0.0,0.0
2022-07-06 17:30:00.244735,781,-1593,-1699,855,2022-07-06 10.59.59.000000 PM,1936752,1,0.0,0.0,0.0,0.0,0.0,0.0
2022-07-06 17:30:00.244735,781,-1593,-1699,855,2022-07-06 10.59.59.000000 PM,1936762,1,0.0,0.0,0.0,0.0,0.0,0.0
2022-07-06 17:30:00.245762,781,-1593,-1699,855,2022-07-06 10.59.59.000000 PM,1936772,1,0.0,0.0,0.0,0.0,0.0,0.0
2022-07-06 17:30:00.278816,781,-1593,-1699,855,2022-07-06 10.59.59.000000 PM,1936782,1,0.0,0.0,0.0,0.0,0.0,0.0
2022-07-06 17:30:00.279807,781,-1593,-1699,855,2022-07-06 10.59.59.000000 PM,1936792,1,0.0,0.0,0.0,0.0,0.0,0.0
2022-07-06 17:30:00.279807,781,-1593,-1699,855,2022-07-06 10.59.59.000000 PM,1936802,1,0.0,0.0,0.0,0.0,0.0,0.0
2022-07-06 17:30:00.280804,781,-1593,-1699,855,2022-07-06 10.59.59.000000 PM,1936812,1,0.0,0.0,0.0,0.0,0.0,0.0
2022-07-06 17:30:00.322602,781,-1593,-1699,855,2022-07-06 10.59.59.000000 PM,1936822,1,0.0,0.0,0.0,0.0,0.0,0.0
2022-07-06 17:30:00.323568,781,-1593,-1699,855,2022-07-06 10.59.59.000000 PM,1936832,1,0.0,0.0,0.0,0.0,0.0,0.0
2022-07-06 17:30:00.323568,781,-1593,-1699,855,2022-07-06 10.59.59.000000 PM,1936842,1,0.0,0.0,0.0,0.0,0.0,0.0
2022-07-06 17:30:00.324563,781,-1593,-1699,855,2022-07-06 10.59.59.000000 PM,1936852,1,0.0,0.0,0.0,0.0,0.0,0.0
2022-07-06 17:30:00.356374,781,-1593,-1699,855,2022-07-06 10.59.59.000000 PM,1936862,1,0.0,0.0,0.0,0.0,0.0,0.0
2022-07-06 17:30:00.357388,781,-1593,-1699,855,2022-07-06 10.59.59.000000 PM,1936872,1,0.0,0.0,0.0,0.0,0.0,0.0
2022-07-06 17:30:00.357388,781,-1593,-1699,855,2022-07-06 10.59.59.000000 PM,1936882,1,0.0,0.0,0.0,0.0,0.0,0.0
2022-07-06 17:30:00.358382,781,-1593,-1699,855,2022-07-06 10.59.59.000000 PM,1936892,1,0.0,0.0,0.0,0.0,0.0,0.0
2022-07-06 17:30:00.421670,781,-1593,-1699,855,2022-07-06 10.59.59.000000 PM,1936902,1,0.0,0.0,0.0,0.0,0.0,0.0
2022-07-06 17:30:00.422670,781,-1593,-1699,855,2022-07-06 10.59.59.000000 PM,1936912,1,0.0,0.0,0.0,0.0,0.0,0.0
2022-07-06 17:30:00.422670,781,-1593,-1699,855,2022-07-06 10.59.59.000000 PM,1936922,1,0.0,0.0,0.0,0.0,0.0,0.0
2022-07-06 17:30:00.422670,781,-1593,-1699,855,2022-07-06 10.59.59.000000 PM,1936932,1,0.0,0.0,0.0,0.0,0.0,0.0
2022-07-06 17:30:00.449671,781,-1593,-1699,855,2022-07-06 10.59.59.000000 PM,1936942,1,0.0,0.0,0.0,0.0,0.0,0.0
2022-07-06 17:30:00.450669,781,-1593,-1699,855,2022-07-06 10.59.59.000000 PM,1936952,1,0.0,0.0,0.0,0.0,0.0,0.0
2022-07-06 17:30:00.451674,781,-1593,-1699,855,2022-07-06 10.59.59.000000 PM,1936962,1,0.0,0.0,0.0,0.0,0.0,0.0
2022-07-06 17:30:00.451674,781,-1593,-1699,855,2022-07-06 10.59.59.000000 PM,1936972,1,0.0,0.0,0.0,0.0,0.0,0.0
2022-07-06 17:30:00.483712,781,-1593,-1699,855,2022-07-06 10.59.59.000000 PM,1936982,1,0.0,0.0,0.0,0.0,0.0,0.0
2022-07-06 17:30:00.484715,781,-1593,-1699,855,2022-07-06 10.59.59.000000 PM,1936992,1,0.0,0.0,0.0,0.0,0.0,0.0
2022-07-06 17:30:00.484715,781,-1593,-1699,855,2022-07-06 10.59.59.000000 PM,1937003,1,0.0,0.0,0.0,0.0,0.0,0.0
2022-07-06 17:30:00.485714,781,-1593,-1699,855,2022-07-06 10.59.59.000000 PM,1937013,1,0.0,0.0,0.0,0.0,0.0,0.0
2022-07-06 17:30:00.515714,781,-1593,-1699,855,2022-07-06 10.59.59.000000 PM,1937023,1,0.0,0.0,0.0,0.0,0.0,0.0
2022-07-06 17:30:00.515714,781,-1593,-1699,855,2022-07-06 10.59.59.000000 PM,1937033,1,0.0,0.0,0.0,0.0,0.0,0.0
2022-07-06 17:30:00.516716,781,-1593,-1699,855,2022-07-06 10.59.59.000000 PM,1937043,1,0.0,0.0,0.0,0.0,0.0,0.0
2022-07-06 17:30:00.516716,781,-1593,-1699,855,2022-07-06 10.59.59.000000 PM,1937053,1,0.0,0.0,0.0,0.0,0.0,0.0
2022-07-06 17:30:00.563713,781,-1593,-1699,855,2022-07-06 10.59.59.000000 PM,1937063,1,0.0,0.0,0.0,0.0,0.0,0.0
2022-07-06 17:30:00.563713,781,-1593,-1699,855,2022-07-06 10.59.59.000000 PM,1937073,1,0.0,0.0,0.0,0.0,0.0,0.0
2022-07-06 17:30:00.564729,781,-1593,-1699,855,2022-07-06 10.59.59.000000 PM,1937083,1,0.0,0.0,0.0,0.0,0.0,0.0
2022-07-06 17:30:00.564729,781,-1593,-1699,855,2022-07-06 10.59.59.000000 PM,1937093,1,0.0,0.0,0.0,0.0,0.0,0.0
2022-07-06 17:30:00.592712,781,-1593,-1699,855,2022-07-06 10.59.59.000000 PM,1937103,1,0.0,0.0,0.0,0.0,0.0,0.0
2022-07-06 17:30:00.592712,781,-1593,-1699,855,2022-07-06 10.59.59.000000 PM,1937113,1,0.0,0.0,0.0,0.0,0.0,0.0
2022-07-06 17:30:00.592712,781,-1593,-1699,855,2022-07-06 10.59.59.000000 PM,1937123,1,0.0,0.0,0.0,0.0,0.0,0.0
2022-07-06 17:30:00.593713,781,-1593,-1699,855,2022-07-06 10.59.59.000000 PM,1937133,1,0.0,0.0,0.0,0.0,0.0,0.0
2022-07-06 17:30:00.653713,781,-1593,-1699,855,2022-07-06 10.59.59.000000 PM,1937143,1,0.0,0.0,0.0,0.0,0.0,0.0
2022-07-06 17:30:00.653713,781,-1593,-1699,855,2022-07-06 10.59.59.000000 PM,1937153,1,0.0,0.0,0.0,0.0,0.0,0.0
2022-07-06 17:30:00.653713,781,-1593,-1699,855,2022-07-06 10.59.59.000000 PM,1937163,1,0.0,0.0,0.0,0.0,0.0,0.0
2022-07-06 17:30:00.654712,781,-1593,-1699,855,2022-07-06 10.59.59.000000 PM,1937173,1,0.0,0.0,0.0,0.0,0.0,0.0
2022-07-06 17:30:00.681714,781,-1593,-1699,855,2022-07-06 10.59.59.000000 PM,1937183,1,0.0,0.0,0.0,0.0,0.0,0.0
2022-07-06 17:30:00.682712,781,-1593,-1699,855,2022-07-06 10.59.59.000000 PM,1937193,1,0.0,0.0,0.0,0.0,0.0,0.0
2022-07-06 17:30:00.682712,781,-1593,-1699,855,2022-07-06 10.59.59.000000 PM,1937203,1,0.0,0.0,0.0,0.0,0.0,0.0
2022-07-06 17:30:00.683714,781,-1593,-1699,855,2022-07-06 10.59.59.000000 PM,1937213,1,0.0,0.0,0.0,0.0,0.0,0.0
2022-07-06 17:30:00.723712,781,-1593,-1699,855,2022-07-06 10.59.59.000000 PM,1937223,1,0.0,0.0,0.0,0.0,0.0,0.0
2022-07-06 17:30:00.723712,781,-1593,-1699,855,2022-07-06 10.59.59.000000 PM,1937233,1,0.0,0.0,0.0,0.0,0.0,0.0
2022-07-06 17:30:00.724712,781,-1593,-1699,855,2022-07-06 10.59.59.000000 PM,1937243,1,0.0,0.0,0.0,0.0,0.0,0.0
2022-07-06 17:30:00.724712,781,-1593,-1699,855,2022-07-06 10.59.59.000000 PM,1937253,1,0.0,0.0,0.0,0.0,0.0,0.0
2022-07-06 17:30:00.767714,781,-1593,-1699,855,2022-07-06 10.59.59.000000 PM,1937263,1,0.0,0.0,0.0,0.0,0.0,0.0
2022-07-06 17:30:00.767714,781,-1593,-1699,855,2022-07-06 10.59.59.000000 PM,1937273,1,0.0,0.0,0.0,0.0,0.0,0.0
2022-07-06 17:30:00.768714,781,-1593,-1699,855,2022-07-06 10.59.59.000000 PM,1937283,1,0.0,0.0,0.0,0.0,0.0,0.0
2022-07-06 17:30:00.768714,781,-1593,-1699,855,2022-07-06 10.59.59.000000 PM,1937293,1,0.0,0.0,0.0,0.0,0.0,0.0
2022-07-06 17:30:00.803744,781,-1593,-1699,855,2022-07-06 10.59.59.000000 PM,1937303,1,0.0,0.0,0.0,0.0,0.0,0.0
2022-07-06 17:30:00.803744,781,-1593,-1699,855,2022-07-06 11.00.00.000000 PM,1937313,1,0.0,0.0,0.0,0.0,0.0,0.0
2022-07-06 17:30:00.804714,781,-1593,-1699,855,2022-07-06 11.00.00.000000 PM,1937323,1,0.0,0.0,0.0,0.0,0.0,0.0
2022-07-06 17:30:00.804714,781,-1593,-1699,855,2022-07-06 11.00.00.000000 PM,1937333,1,0.0,0.0,0.0,0.0,0.0,0.0
2022-07-06 17:30:00.833661,781,-1593,-1699,855,2022-07-06 11.00.00.000000 PM,1937343,1,0.0,0.0,0.0,0.0,0.0,0.0
2022-07-06 17:30:00.834659,781,-1593,-1699,855,2022-07-06 11.00.00.000000 PM,1937353,1,0.0,0.0,0.0,0.0,0.0,0.0
2022-07-06 17:30:00.834659,781,-1593,-1699,855,2022-07-06 11.00.00.000000 PM,1937363,1,0.0,0.0,0.0,0.0,0.0,0.0
2022-07-06 17:30:00.835658,781,-1593,-1699,855,2022-07-06 11.00.00.000000 PM,1937373,1,0.0,0.0,0.0,0.0,0.0,0.0
2022-07-06 17:30:00.923540,781,-1593,-1699,855,2022-07-06 11.00.00.000000 PM,1937383,1,0.0,0.0,0.0,0.0,0.0,0.0
2022-07-06 17:30:00.924267,781,-1593,-1699,855,2022-07-06 11.00.00.000000 PM,1937393,1,0.0,0.0,0.0,0.0,0.0,0.0
2022-07-06 17:30:00.924267,781,-1593,-1699,855,2022-07-06 11.00.00.000000 PM,1937403,1,0.0,0.0,0.0,0.0,0.0,0.0
2022-07-06 17:30:00.925266,781,-1593,-1699,855,2022-07-06 11.00.00.000000 PM,1937413,1,0.0,0.0,0.0,0.0,0.0,0.0
2022-07-06 17:30:00.937599,781,-1593,-1699,855,2022-07-06 11.00.00.000000 PM,1937423,1,0.0,0.0,0.0,0.0,0.0,0.0
2022-07-06 17:30:00.937599,781,-1593,-1699,855,2022-07-06 11.00.00.000000 PM,1937433,1,0.0,0.0,0.0,0.0,0.0,0.0
2022-07-06 17:30:00.938598,781,-1593,-1699,855,2022-07-06 11.00.00.000000 PM,1937443,1,0.0,0.0,0.0,0.0,0.0,0.0
2022-07-06 17:30:00.938598,781,-1593,-1699,855,2022-07-06 11.00.00.000000 PM,1937453,1,0.0,0.0,0.0,0.0,0.0,0.0
2022-07-06 17:30:00.968783,781,-1593,-1699,855,2022-07-06 11.00.00.000000 PM,1937463,1,0.0,0.0,0.0,0.0,0.0,0.0
2022-07-06 17:30:00.969488,781,-1593,-1699,855,2022-07-06 11.00.00.000000 PM,1937473,1,0.0,0.0,0.0,0.0,0.0,0.0
2022-07-06 17:30:00.970489,781,-1593,-1699,855,2022-07-06 11.00.00.000000 PM,1937483,1,0.0,0.0,0.0,0.0,0.0,0.0
2022-07-06 17:30:00.970489,781,-1593,-1699,855,2022-07-06 11.00.00.000000 PM,1937493,1,0.0,0.0,0.0,0.0,0.0,0.0
2022-07-06 17:30:01.013954,781,-1593,-1699,855,2022-07-06 11.00.00.000000 PM,1937503,1,0.0,0.0,0.0,0.0,0.0,0.0
2022-07-06 17:30:01.013954,781,-1593,-1699,855,2022-07-06 11.00.00.000000 PM,1937513,1,0.0,0.0,0.0,0.0,0.0,0.0
2022-07-06 17:30:01.014956,781,-1593,-1699,855,2022-07-06 11.00.00.000000 PM,1937523,1,0.0,0.0,0.0,0.0,0.0,0.0
2022-07-06 17:30:01.014956,780,-1593,-1699,854,2022-07-06 11.00.00.000000 PM,1937533,1,0.0,0.0,0.0,0.0,0.0,0.0
2022-07-06 17:30:01.015953,780,-1593,-1699,854,2022-07-06 11.00.00.000000 PM,1937543,1,0.0,0.0,0.0,0.0,0.0,0.0
2022-07-06 17:30:01.053563,780,-1593,-1699,854,2022-07-06 11.00.00.000000 PM,1937553,1,0.0,0.0,0.0,0.0,0.0,0.0
2022-07-06 17:30:01.054457,780,-1593,-1700,854,2022-07-06 11.00.00.000000 PM,1937563,1,0.0,0.0,0.0,0.0,0.0,0.0
2022-07-06 17:30:01.054457,780,-1593,-1700,854,2022-07-06 11.00.00.000000 PM,1937573,1,0.0,0.0,0.0,0.0,0.0,0.0
2022-07-06 17:30:01.055455,780,-1593,-1700,854,2022-07-06 11.00.00.000000 PM,1937583,1,0.0,0.0,0.0,0.0,0.0,0.0
2022-07-06 17:30:01.077486,780,-1593,-1700,854,2022-07-06 11.00.00.000000 PM,1937593,1,0.0,0.0,0.0,0.0,0.0,0.0
2022-07-06 17:30:01.078499,780,-1593,-1700,854,2022-07-06 11.00.00.000000 PM,1937603,1,0.0,0.0,0.0,0.0,0.0,0.0
2022-07-06 17:30:01.078499,780,-1593,-1700,854,2022-07-06 11.00.00.000000 PM,1937613,1,0.0,0.0,0.0,0.0,0.0,0.0
2022-07-06 17:30:01.079456,780,-1593,-1700,854,2022-07-06 11.00.00.000000 PM,1937623,1,0.0,0.0,0.0,0.0,0.0,0.0
2022-07-06 17:30:01.136158,780,-1593,-1700,854,2022-07-06 11.00.00.000000 PM,1937633,1,0.0,0.0,0.0,0.0,0.0,0.0
2022-07-06 17:30:01.136158,780,-1593,-1700,854,2022-07-06 11.00.00.000000 PM,1937643,1,0.0,0.0,0.0,0.0,0.0,0.0
2022-07-06 17:30:01.137156,780,-1593,-1700,854,2022-07-06 11.00.00.000000 PM,1937653,1,0.0,0.0,0.0,0.0,0.0,0.0
2022-07-06 17:30:01.137156,780,-1593,-1700,854,2022-07-06 11.00.00.000000 PM,1937663,1,0.0,0.0,0.0,0.0,0.0,0.0
2022-07-06 17:30:01.192621,780,-1593,-1700,854,2022-07-06 11.00.00.000000 PM,1937673,1,0.0,0.0,0.0,0.0,0.0,0.0
